Iagree.response,Iagree.rt,key_space.keys,key_space.rt,true_certain_0.response,true_certain_0.rt,nextPractice.keys,nextPractice.rt,trialsTraining.thisRepN,trialsTraining.thisTrialN,trialsTraining.thisN,trialsTraining.thisIndex,trialsTraining.ran,context_t,pic_meaning_t,utterance_t,feedback_t,predicted_t,true_how_t,session,participant,gender,age,date,expName,psychopyVersion,OS,frameRate,key_resp.keys,key_resp.rt,true_can_1.response,true_can_1.rt,testDone.keys,testDone.rt,trialsTestLoop.thisRepN,trialsTestLoop.thisTrialN,trialsTestLoop.thisN,trialsTestLoop.thisIndex,trialsTestLoop.ran,context,pic_meaning,utterance,predicted,true_how,code,ling_con
1,10.05832,space,14.546335,1,24.91349,space,18.2453,0,0,0,0,1,语境：男生让女生选择吃什么。除了门口的黑板，手机上也可以查到菜单。,trainingImg/amb1.png,句子：“男生正在等待女生， 手里握着一个手机。”,“手里握着手机”的可指“男生”，也可指“女生”。图片中确实有握着手机的女生。句子可以真实描述图片。,1,possibly,1,not0,Male,20,2020-08-12_14h27.16.322,XpragNot,2020.1.2,Win32,60,,,,,,,,,,,,,,,,,,
,,,,1,13.7025,space,7.515285,0,1,1,1,1,语境：男生让女生选择吃什么。除了门口的黑板，手机上也可以查到菜单。,trainingImg/amb2.png,句子：“男生正在等待女生， 手里握着一个手机。”,“手里握着手机”的可指“男生”，也可指“女生”。图片中确实有握着手机的男生。句子可以真实描述图片。,1,possibly,1,not0,Male,20,2020-08-12_14h27.16.322,XpragNot,2020.1.2,Win32,60,,,,,,,,,,,,,,,,,,
,,,,0,11.9684,space,5.751945,0,2,2,2,1,语境：女生躺在病床上睡着了。一会需要清洁纸巾。,trainingImg/noamb1v2.png,句子：“男生正在等待女生， 手里握着一个手机。”,“手里握着手机”的可指“男生”，也可指“女生”。图片中并没有握着手机的男生/女生。句子不可以真实描述图片。,0,necessarily,1,not0,Male,20,2020-08-12_14h27.16.322,XpragNot,2020.1.2,Win32,60,,,,,,,,,,,,,,,,,,
,,,,1,12.717455,space,5.621895,0,3,3,3,1,语境：女生躺在病床上睡着了。一会需要清洁纸巾。,trainingImg/noamb1v2.png,句子：“男生正在等待女生， 手里握着一张清洁纸巾。”,“手里握着清洁纸巾”的可指“男生”，也可指“女生”。图片中确实有握纸巾的男生。句子可以真实描述图片。,1,necessarily,1,not0,Male,20,2020-08-12_14h27.16.322,XpragNot,2020.1.2,Win32,60,,,,,,,,,,,,,,,,,,
,,,,,,,,,,,,,,,,,,,1,not0,Male,20,2020-08-12_14h27.16.322,XpragNot,2020.1.2,Win32,60,space,1.501565,1,11.888255,space,8.38627,0,0,0,10,1,语境：图片中的女生觉得155cm算是高的男孩。她在比较三个男孩的身高。,img/gao_comp.png,句子：“这三个男孩里，小明高。”,1,necessarily,pos-t-comp-t-gao,upward
,,,,,,,,,,,,,,,,,,,1,not0,Male,20,2020-08-12_14h27.16.322,XpragNot,2020.1.2,Win32,60,,,1,8.95302,space,5.4428,0,1,1,1,1,语境：图片中的女生在比较三辆车的价格。她觉得30万算是贵的车。,img/gui_comp.png,句子：“这三个车里，红车贵。”,1,possibly,pos-f-comp-t-gui,upward
,,,,,,,,,,,,,,,,,,,1,not0,Male,20,2020-08-12_14h27.16.322,XpragNot,2020.1.2,Win32,60,,,0,10.574225,space,6.128165,0,2,2,19,1,语境：图片中的女生在比较三个蒙古包的面积大小。她觉得90平方米算是大的蒙古包。,img/da_pos.png,句子：“B蒙古包大。”,0,necessarily,pos-f-comp-f-da,upward
,,,,,,,,,,,,,,,,,,,1,not0,Male,20,2020-08-12_14h27.16.322,XpragNot,2020.1.2,Win32,60,,,0,13.564555,space,8.887645,0,3,3,27,1,语境：图片中的女生在比较三辆车的时速。她觉得时速130算是快的车速。,img/kuai_pos.png,句子：“我们的这辆车快。”,0,necessarily,pos-f-comp-f-kuai,upward
,,,,,,,,,,,,,,,,,,,1,not0,Male,20,2020-08-12_14h27.16.322,XpragNot,2020.1.2,Win32,60,,,1,4.315455,space,2.683175,0,4,4,16,1,语境：图片中的女生觉得20平方米算是大的蒙古包。她想租蒙古包。,img/da_pos.png,句子：“B蒙古包大。”,1,possibly,pos-t-comp-f-da,upward
,,,,,,,,,,,,,,,,,,,1,not0,Male,20,2020-08-12_14h27.16.322,XpragNot,2020.1.2,Win32,60,,,1,20.33147,space,17.48787,0,5,5,29,1,语境：图片中的女生在比较三辆车的时速。她觉得时速160算是快的车速。,img/kuai_comp.png,句子：“我们的这辆车不快。”,1,possibly,pos-f-comp-t-bukuai,downward_not
,,,,,,,,,,,,,,,,,,,1,not0,Male,20,2020-08-12_14h27.16.322,XpragNot,2020.1.2,Win32,60,,,1,16.16989,space,11.6113,0,6,6,26,1,语境：图片中的女生觉得时速70算是快的车速。她在比较三辆车的车速。,img/kuai_comp.png,句子：“这三辆车里，我们的这辆车快。”,1,necessarily,pos-t-comp-t-kuai,upward
,,,,,,,,,,,,,,,,,,,1,not0,Male,20,2020-08-12_14h27.16.322,XpragNot,2020.1.2,Win32,60,,,1,12.05399,space,22.88103,0,7,7,9,1,语境：图片中的女生在比较三个男生的身高。她觉得190cm算是高的男生。,img/gao_comp.png,句子：“这三个男生里，小明高。”,1,possibly,pos-f-comp-t-gao,upward
,,,,,,,,,,,,,,,,,,,1,not0,Male,20,2020-08-12_14h27.16.322,XpragNot,2020.1.2,Win32,60,,,0,6.711605,space,3.592995,0,8,8,11,1,语境：图片中的女生在比较三个男生的身高。她觉得195cm算是高的男生。,img/gao_pos.png,句子：“小明高。”,0,necessarily,pos-f-comp-f-gao,upward
,,,,,,,,,,,,,,,,,,,1,not0,Male,20,2020-08-12_14h27.16.322,XpragNot,2020.1.2,Win32,60,,,0,28.054365,space,27.74456,0,9,9,28,1,语境：图片中的女生觉得时速90km算是快的车。她坐在副驾驶。,img/kuai_pos.png,句子：“这三辆车里，我们的这辆车不快。”,1,possibly,pos-t-comp-f-bukuai,downward_not
,,,,,,,,,,,,,,,,,,,1,not0,Male,20,2020-08-12_14h27.16.322,XpragNot,2020.1.2,Win32,60,,,1,10.34832,space,5.85154,0,10,10,18,1,语境：图片中的女生觉得20平方米算是大的蒙古包。她在比较三个蒙古包的面积大小。,img/da_comp.png,句子：“这三个蒙古包里，B蒙古包大。”,1,necessarily,pos-t-comp-t-da,upward
,,,,,,,,,,,,,,,,,,,1,not0,Male,20,2020-08-12_14h27.16.322,XpragNot,2020.1.2,Win32,60,,,0,4.8859,space,0.28278,0,11,11,30,1,语境：图片中的女生觉得时速110算是快的车速。她在比较三辆车的车速。,img/kuai_comp.png,句子：“我们的这辆车不快。”,0,necessarily,pos-t-comp-t-bukuai,downward_not
,,,,,,,,,,,,,,,,,,,1,not0,Male,20,2020-08-12_14h27.16.322,XpragNot,2020.1.2,Win32,60,,,1,4.271745,space,0.12265,0,12,12,0,1,语境：图片中的女生觉得7万算是贵的车。她想买车。,img/gui_pos.png,句子：“红车贵。”,1,possibly,pos-t-comp-f-gui,upward
,,,,,,,,,,,,,,,,,,,1,not0,Male,20,2020-08-12_14h27.16.322,XpragNot,2020.1.2,Win32,60,,,0,8.24154,space,8.3933,0,13,13,4,1,语境：图片中的女生觉得7万算是贵的车。她想买车。,img/gui_pos.png,句子：“这三个车里，红车不贵。”,1,possibly,pos-t-comp-f-bugui,downward_not
,,,,,,,,,,,,,,,,,,,1,not0,Male,20,2020-08-12_14h27.16.322,XpragNot,2020.1.2,Win32,60,,,1,7.710025,space,3.17567,0,14,14,17,1,语境：图片中的女生在比较三个蒙古包的面积大小。她觉得100平方米算是大的蒙古包。,img/da_comp.png,句子：“这三个蒙古包里，B蒙古包大。”,1,possibly,pos-f-comp-t-da,upward
,,,,,,,,,,,,,,,,,,,1,not0,Male,20,2020-08-12_14h27.16.322,XpragNot,2020.1.2,Win32,60,,,0,6.472555,space,5.669585,0,15,15,12,1,语境：图片中的女生觉得170cm算是高的男生。她在和男生聊天。,img/gao_pos.png,句子：“这三个男生里，小明不高。”,1,possibly,pos-t-comp-f-bugao,downward_not
,,,,,,,,,,,,,,,,,,,1,not0,Male,20,2020-08-12_14h27.16.322,XpragNot,2020.1.2,Win32,60,,,1,10.113025,space,5.376695,0,16,16,23,1,语境：图片中的女生在比较三个蒙古包的面积大小。她觉得50平方米算是大的蒙古包。,img/da_pos.png,句子：“这三个蒙古包里，B蒙古包不大。”,1,necessarily,pos-f-comp-f-buda,downward_not
,,,,,,,,,,,,,,,,,,,1,not0,Male,20,2020-08-12_14h27.16.322,XpragNot,2020.1.2,Win32,60,,,1,10.166905,space,5.522885,0,17,17,15,1,语境：图片中的女生在比较三个男生的身高。她觉得195cm算是高的男生。,img/gao_pos.png,句子：“这三个男生里，小明不高。”,1,necessarily,pos-f-comp-f-bugao,downward_not
,,,,,,,,,,,,,,,,,,,1,not0,Male,20,2020-08-12_14h27.16.322,XpragNot,2020.1.2,Win32,60,,,0,15.648965,space,44.28526,0,18,18,13,1,语境：图片中的女生在比较三个男生的身高。她觉得190cm算是高的男生。,img/gao_comp.png,句子：“小明不高。”,1,possibly,pos-f-comp-t-bugao,downward_not
,,,,,,,,,,,,,,,,,,,1,not0,Male,20,2020-08-12_14h27.16.322,XpragNot,2020.1.2,Win32,60,,,0,9.62771,space,8.59436,0,19,19,6,1,语境：图片中的女生觉得15万算是贵的车。她在比较三辆车的价格。,img/gui_comp.png,句子：“红车不贵。”,0,necessarily,pos-t-comp-t-bugui,downward_not
,,,,,,,,,,,,,,,,,,,1,not0,Male,20,2020-08-12_14h27.16.322,XpragNot,2020.1.2,Win32,60,,,1,9.07451,space,4.38916,0,20,20,7,1,语境：图片中的女生在比较三辆车的价格。她觉得18万算是贵的车。,img/gui_pos.png,句子：“这三个车里，红车不贵。”,1,necessarily,pos-f-comp-f-bugui,downward_not
,,,,,,,,,,,,,,,,,,,1,not0,Male,20,2020-08-12_14h27.16.322,XpragNot,2020.1.2,Win32,60,,,1,6.2457,space,1.51321,0,21,21,31,1,语境：图片中的女生在比较三辆车的时速。她觉得时速130算是快的车速。,img/kuai_pos.png,句子：“这三辆车里，我们的这辆车不快。”,1,necessarily,pos-f-comp-f-bukuai,downward_not
,,,,,,,,,,,,,,,,,,,1,not0,Male,20,2020-08-12_14h27.16.322,XpragNot,2020.1.2,Win32,60,,,1,6.179765,space,1.40149,0,22,22,2,1,语境：图片中的女生觉得15万算是贵的车。她在比较三辆车的价格。,img/gui_comp.png,句子：“这三个车里，红车贵。”,1,necessarily,pos-t-comp-t-gui,upward
,,,,,,,,,,,,,,,,,,,1,not0,Male,20,2020-08-12_14h27.16.322,XpragNot,2020.1.2,Win32,60,,,0,3.84445,space,0.25445,0,23,23,3,1,语境：图片中的女生在比较三辆车的价格。她觉得18万算是贵的车。,img/gui_pos.png,句子：“红车贵。”,0,necessarily,pos-f-comp-f-gui,upward
,,,,,,,,,,,,,,,,,,,1,not0,Male,20,2020-08-12_14h27.16.322,XpragNot,2020.1.2,Win32,60,,,0,4.82632,space,0.100825,0,24,24,22,1,语境：图片中的女生觉得50平方米算是大的蒙古包。她在比较三个蒙古包的面积大小。,img/da_comp.png,句子：“B蒙古包不大。”,0,necessarily,pos-t-comp-t-buda,downward_not
,,,,,,,,,,,,,,,,,,,1,not0,Male,20,2020-08-12_14h27.16.322,XpragNot,2020.1.2,Win32,60,,,0,4.245,space,0.6885,0,25,25,14,1,语境：图片中的女生觉得173cm算是高的男孩。她在比较三个男孩的身高。,img/gao_comp.png,句子：“小明不高。”,0,necessarily,pos-t-comp-t-bugao,downward_not
,,,,,,,,,,,,,,,,,,,1,not0,Male,20,2020-08-12_14h27.16.322,XpragNot,2020.1.2,Win32,60,,,1,13.77384,space,10.471145,0,26,26,21,1,语境：图片中的女生在比较三个蒙古包的面积大小。她觉得100平方米算是大的蒙古包。,img/da_comp.png,句子：“B蒙古包不大。”,1,possibly,pos-f-comp-t-buda,downward_not
,,,,,,,,,,,,,,,,,,,1,not0,Male,20,2020-08-12_14h27.16.322,XpragNot,2020.1.2,Win32,60,,,1,6.40882,space,1.73728,0,27,27,8,1,语境：图片中的女生觉得170cm算是高的男生。她在和男生聊天。,img/gao_pos.png,句子：“小明高。”,1,possibly,pos-t-comp-f-gao,upward
,,,,,,,,,,,,,,,,,,,1,not0,Male,20,2020-08-12_14h27.16.322,XpragNot,2020.1.2,Win32,60,,,1,5.458255,space,1.46775,0,28,28,5,1,语境：图片中的女生在比较三辆车的价格。她觉得30万算是贵的车。,img/gui_comp.png,句子：“红车不贵。”,1,possibly,pos-f-comp-t-bugui,downward_not
,,,,,,,,,,,,,,,,,,,1,not0,Male,20,2020-08-12_14h27.16.322,XpragNot,2020.1.2,Win32,60,,,0,7.982065,space,6.629695,0,29,29,20,1,语境：图片中的女生觉得20平方米算是大的蒙古包。她想租蒙古包。,img/da_pos.png,句子：“这三个蒙古包里，B蒙古包不大。”,1,possibly,pos-t-comp-f-buda,downward_not
,,,,,,,,,,,,,,,,,,,1,not0,Male,20,2020-08-12_14h27.16.322,XpragNot,2020.1.2,Win32,60,,,0,7.53949,space,2.820125,0,30,30,25,1,语境：图片中的女生在比较三辆车的时速。她觉得时速160算是快的车速。,img/kuai_comp.png,句子：“这三辆车里，我们的这辆车快。”,1,possibly,pos-f-comp-t-kuai,upward
,,,,,,,,,,,,,,,,,,,1,not0,Male,20,2020-08-12_14h27.16.322,XpragNot,2020.1.2,Win32,60,,,1,6.3125,space,3.232255,0,31,31,24,1,语境：图片中的女生觉得时速90km算是快的车。她坐在副驾驶。,img/kuai_pos.png,句子：“我们的这辆车快。”,1,possibly,pos-t-comp-f-kuai,upward
1,22.817,space,25.898,0,44.631,space,37,0,0,0,0,1,语境：男生让女生选择吃什么。除了门口的黑板，手机上也可以查到菜单。,trainingImg/amb1.png,句子：“男生正在等待女生， 手里握着一个手机。”,“手里握着手机”的可指“男生”，也可指“女生”。图片中确实有握着手机的女生。句子可以真实描述图片。,1,possibly,1,not1,,,2020-08-12_17h32.50.583,XpragNot,2020.1.2,Win32,60,,,,,,,,,,,,,,,,,,
,,,,0,40.256,space,32.466,0,1,1,1,1,语境：男生让女生选择吃什么。除了门口的黑板，手机上也可以查到菜单。,trainingImg/amb2.png,句子：“男生正在等待女生， 手里握着一个手机。”,“手里握着手机”的可指“男生”，也可指“女生”。图片中确实有握着手机的男生。句子可以真实描述图片。,1,possibly,1,not1,,,2020-08-12_17h32.50.583,XpragNot,2020.1.2,Win32,60,,,,,,,,,,,,,,,,,,
,,,,0,14.009,space,17.656,0,2,2,2,1,语境：女生躺在病床上睡着了。一会需要清洁纸巾。,trainingImg/noamb1v2.png,句子：“男生正在等待女生， 手里握着一个手机。”,“手里握着手机”的可指“男生”，也可指“女生”。图片中并没有握着手机的男生/女生。句子不可以真实描述图片。,0,necessarily,1,not1,,,2020-08-12_17h32.50.583,XpragNot,2020.1.2,Win32,60,,,,,,,,,,,,,,,,,,
,,,,1,17.195,space,8.983,0,3,3,3,1,语境：女生躺在病床上睡着了。一会需要清洁纸巾。,trainingImg/noamb1v2.png,句子：“男生正在等待女生， 手里握着一张清洁纸巾。”,“手里握着清洁纸巾”的可指“男生”，也可指“女生”。图片中确实有握纸巾的男生。句子可以真实描述图片。,1,necessarily,1,not1,,,2020-08-12_17h32.50.583,XpragNot,2020.1.2,Win32,60,,,,,,,,,,,,,,,,,,
,,,,,,,,,,,,,,,,,,,1,not1,,,2020-08-12_17h32.50.583,XpragNot,2020.1.2,Win32,60,space,1.086,1,48.332,space,44.11,0,0,0,0,1,语境：图片中的女生觉得7万算是贵的车。她想买车。,img/gui_pos.png,句子：“红车贵。”,1,possibly,pos-t-comp-f-gui,upward
,,,,,,,,,,,,,,,,,,,1,not1,,,2020-08-12_17h32.50.583,XpragNot,2020.1.2,Win32,60,,,1,9.055,space,4.469,0,1,1,12,1,语境：图片中的女生觉得170cm算是高的男生。她在和男生聊天。,img/gao_pos.png,句子：“这三个男生里，小明不高。”,1,possibly,pos-t-comp-f-bugao,downward_not
,,,,,,,,,,,,,,,,,,,1,not1,,,2020-08-12_17h32.50.583,XpragNot,2020.1.2,Win32,60,,,1,8.768,space,6.004,0,2,2,15,1,语境：图片中的女生在比较三个男生的身高。她觉得195cm算是高的男生。,img/gao_pos.png,句子：“这三个男生里，小明不高。”,1,necessarily,pos-f-comp-f-bugao,downward_not
,,,,,,,,,,,,,,,,,,,1,not1,,,2020-08-12_17h32.50.583,XpragNot,2020.1.2,Win32,60,,,1,22.737,space,18.571,0,3,3,25,1,语境：图片中的女生在比较三辆车的时速。她觉得时速160算是快的车速。,img/kuai_comp.png,句子：“这三辆车里，我们的这辆车快。”,1,possibly,pos-f-comp-t-kuai,upward
,,,,,,,,,,,,,,,,,,,1,not1,,,2020-08-12_17h32.50.583,XpragNot,2020.1.2,Win32,60,,,0,5.688,space,3.015,0,4,4,3,1,语境：图片中的女生在比较三辆车的价格。她觉得18万算是贵的车。,img/gui_pos.png,句子：“红车贵。”,0,necessarily,pos-f-comp-f-gui,upward
,,,,,,,,,,,,,,,,,,,1,not1,,,2020-08-12_17h32.50.583,XpragNot,2020.1.2,Win32,60,,,1,14.259,space,9.643,0,5,5,23,1,语境：图片中的女生在比较三个蒙古包的面积大小。她觉得50平方米算是大的蒙古包。,img/da_pos.png,句子：“这三个蒙古包里，B蒙古包不大。”,1,necessarily,pos-f-comp-f-buda,downward_not
,,,,,,,,,,,,,,,,,,,1,not1,,,2020-08-12_17h32.50.583,XpragNot,2020.1.2,Win32,60,,,1,7.607,space,5.697,0,6,6,26,1,语境：图片中的女生觉得时速70算是快的车速。她在比较三辆车的车速。,img/kuai_comp.png,句子：“这三辆车里，我们的这辆车快。”,1,necessarily,pos-t-comp-t-kuai,upward
,,,,,,,,,,,,,,,,,,,1,not1,,,2020-08-12_17h32.50.583,XpragNot,2020.1.2,Win32,60,,,1,10.716,space,6.434,0,7,7,20,1,语境：图片中的女生觉得20平方米算是大的蒙古包。她想租蒙古包。,img/da_pos.png,句子：“这三个蒙古包里，B蒙古包不大。”,1,possibly,pos-t-comp-f-buda,downward_not
,,,,,,,,,,,,,,,,,,,1,not1,,,2020-08-12_17h32.50.583,XpragNot,2020.1.2,Win32,60,,,0,17.828,space,13.707,0,8,8,27,1,语境：图片中的女生在比较三辆车的时速。她觉得时速130算是快的车速。,img/kuai_pos.png,句子：“我们的这辆车快。”,0,necessarily,pos-f-comp-f-kuai,upward
,,,,,,,,,,,,,,,,,,,1,not1,,,2020-08-12_17h32.50.583,XpragNot,2020.1.2,Win32,60,,,1,19.942,space,17.405,0,9,9,28,1,语境：图片中的女生觉得时速90km算是快的车。她坐在副驾驶。,img/kuai_pos.png,句子：“这三辆车里，我们的这辆车不快。”,1,possibly,pos-t-comp-f-bukuai,downward_not
,,,,,,,,,,,,,,,,,,,1,not1,,,2020-08-12_17h32.50.583,XpragNot,2020.1.2,Win32,60,,,1,8.98,space,4.482,0,10,10,5,1,语境：图片中的女生在比较三辆车的价格。她觉得30万算是贵的车。,img/gui_comp.png,句子：“红车不贵。”,1,possibly,pos-f-comp-t-bugui,downward_not
,,,,,,,,,,,,,,,,,,,1,not1,,,2020-08-12_17h32.50.583,XpragNot,2020.1.2,Win32,60,,,0,16.009,space,11.875,0,11,11,22,1,语境：图片中的女生觉得50平方米算是大的蒙古包。她在比较三个蒙古包的面积大小。,img/da_comp.png,句子：“B蒙古包不大。”,0,necessarily,pos-t-comp-t-buda,downward_not
,,,,,,,,,,,,,,,,,,,1,not1,,,2020-08-12_17h32.50.583,XpragNot,2020.1.2,Win32,60,,,1,9.538,space,5.172,0,12,12,4,1,语境：图片中的女生觉得7万算是贵的车。她想买车。,img/gui_pos.png,句子：“这三个车里，红车不贵。”,1,possibly,pos-t-comp-f-bugui,downward_not
,,,,,,,,,,,,,,,,,,,1,not1,,,2020-08-12_17h32.50.583,XpragNot,2020.1.2,Win32,60,,,1,7.735,space,3.182,0,13,13,16,1,语境：图片中的女生觉得20平方米算是大的蒙古包。她想租蒙古包。,img/da_pos.png,句子：“B蒙古包大。”,1,possibly,pos-t-comp-f-da,upward
,,,,,,,,,,,,,,,,,,,1,not1,,,2020-08-12_17h32.50.583,XpragNot,2020.1.2,Win32,60,,,1,13.02,space,8.449,0,14,14,9,1,语境：图片中的女生在比较三个男生的身高。她觉得190cm算是高的男生。,img/gao_comp.png,句子：“这三个男生里，小明高。”,1,possibly,pos-f-comp-t-gao,upward
,,,,,,,,,,,,,,,,,,,1,not1,,,2020-08-12_17h32.50.583,XpragNot,2020.1.2,Win32,60,,,1,3.041,space,1.627,0,15,15,13,1,语境：图片中的女生在比较三个男生的身高。她觉得190cm算是高的男生。,img/gao_comp.png,句子：“小明不高。”,1,possibly,pos-f-comp-t-bugao,downward_not
,,,,,,,,,,,,,,,,,,,1,not1,,,2020-08-12_17h32.50.583,XpragNot,2020.1.2,Win32,60,,,0,6.196,space,1.538,0,16,16,11,1,语境：图片中的女生在比较三个男生的身高。她觉得195cm算是高的男生。,img/gao_pos.png,句子：“小明高。”,0,necessarily,pos-f-comp-f-gao,upward
,,,,,,,,,,,,,,,,,,,1,not1,,,2020-08-12_17h32.50.583,XpragNot,2020.1.2,Win32,60,,,1,5.084,space,0.826,0,17,17,1,1,语境：图片中的女生在比较三辆车的价格。她觉得30万算是贵的车。,img/gui_comp.png,句子：“这三个车里，红车贵。”,1,possibly,pos-f-comp-t-gui,upward
,,,,,,,,,,,,,,,,,,,1,not1,,,2020-08-12_17h32.50.583,XpragNot,2020.1.2,Win32,60,,,1,6.237,space,1.654,0,18,18,18,1,语境：图片中的女生觉得20平方米算是大的蒙古包。她在比较三个蒙古包的面积大小。,img/da_comp.png,句子：“这三个蒙古包里，B蒙古包大。”,1,necessarily,pos-t-comp-t-da,upward
,,,,,,,,,,,,,,,,,,,1,not1,,,2020-08-12_17h32.50.583,XpragNot,2020.1.2,Win32,60,,,1,4.833,space,4.445,0,19,19,24,1,语境：图片中的女生觉得时速90km算是快的车。她坐在副驾驶。,img/kuai_pos.png,句子：“我们的这辆车快。”,1,possibly,pos-t-comp-f-kuai,upward
,,,,,,,,,,,,,,,,,,,1,not1,,,2020-08-12_17h32.50.583,XpragNot,2020.1.2,Win32,60,,,1,4.485,space,1.283,0,20,20,17,1,语境：图片中的女生在比较三个蒙古包的面积大小。她觉得100平方米算是大的蒙古包。,img/da_comp.png,句子：“这三个蒙古包里，B蒙古包大。”,1,possibly,pos-f-comp-t-da,upward
,,,,,,,,,,,,,,,,,,,1,not1,,,2020-08-12_17h32.50.583,XpragNot,2020.1.2,Win32,60,,,0,7.838,space,3.631,0,21,21,6,1,语境：图片中的女生觉得15万算是贵的车。她在比较三辆车的价格。,img/gui_comp.png,句子：“红车不贵。”,0,necessarily,pos-t-comp-t-bugui,downward_not
,,,,,,,,,,,,,,,,,,,1,not1,,,2020-08-12_17h32.50.583,XpragNot,2020.1.2,Win32,60,,,1,8.447,space,4.603,0,22,22,2,1,语境：图片中的女生觉得15万算是贵的车。她在比较三辆车的价格。,img/gui_comp.png,句子：“这三个车里，红车贵。”,1,necessarily,pos-t-comp-t-gui,upward
,,,,,,,,,,,,,,,,,,,1,not1,,,2020-08-12_17h32.50.583,XpragNot,2020.1.2,Win32,60,,,0,11.816,space,7.813,0,23,23,19,1,语境：图片中的女生在比较三个蒙古包的面积大小。她觉得90平方米算是大的蒙古包。,img/da_pos.png,句子：“B蒙古包大。”,0,necessarily,pos-f-comp-f-da,upward
,,,,,,,,,,,,,,,,,,,1,not1,,,2020-08-12_17h32.50.583,XpragNot,2020.1.2,Win32,60,,,1,14.364,space,10.081,0,24,24,31,1,语境：图片中的女生在比较三辆车的时速。她觉得时速130算是快的车速。,img/kuai_pos.png,句子：“这三辆车里，我们的这辆车不快。”,1,necessarily,pos-f-comp-f-bukuai,downward_not
,,,,,,,,,,,,,,,,,,,1,not1,,,2020-08-12_17h32.50.583,XpragNot,2020.1.2,Win32,60,,,0,8.164,space,3.886,0,25,25,30,1,语境：图片中的女生觉得时速110算是快的车速。她在比较三辆车的车速。,img/kuai_comp.png,句子：“我们的这辆车不快。”,0,necessarily,pos-t-comp-t-bukuai,downward_not
,,,,,,,,,,,,,,,,,,,1,not1,,,2020-08-12_17h32.50.583,XpragNot,2020.1.2,Win32,60,,,0,5.851,space,1.573,0,26,26,14,1,语境：图片中的女生觉得173cm算是高的男孩。她在比较三个男孩的身高。,img/gao_comp.png,句子：“小明不高。”,0,necessarily,pos-t-comp-t-bugao,downward_not
,,,,,,,,,,,,,,,,,,,1,not1,,,2020-08-12_17h32.50.583,XpragNot,2020.1.2,Win32,60,,,1,21.941,space,18.326,0,27,27,29,1,语境：图片中的女生在比较三辆车的时速。她觉得时速160算是快的车速。,img/kuai_comp.png,句子：“我们的这辆车不快。”,1,possibly,pos-f-comp-t-bukuai,downward_not
,,,,,,,,,,,,,,,,,,,1,not1,,,2020-08-12_17h32.50.583,XpragNot,2020.1.2,Win32,60,,,0,7.383,space,3.003,0,28,28,8,1,语境：图片中的女生觉得170cm算是高的男生。她在和男生聊天。,img/gao_pos.png,句子：“小明高。”,1,possibly,pos-t-comp-f-gao,upward
,,,,,,,,,,,,,,,,,,,1,not1,,,2020-08-12_17h32.50.583,XpragNot,2020.1.2,Win32,60,,,1,7.436,space,3.136,0,29,29,7,1,语境：图片中的女生在比较三辆车的价格。她觉得18万算是贵的车。,img/gui_pos.png,句子：“这三个车里，红车不贵。”,1,necessarily,pos-f-comp-f-bugui,downward_not
,,,,,,,,,,,,,,,,,,,1,not1,,,2020-08-12_17h32.50.583,XpragNot,2020.1.2,Win32,60,,,1,5.586,space,1.219,0,30,30,10,1,语境：图片中的女生觉得155cm算是高的男孩。她在比较三个男孩的身高。,img/gao_comp.png,句子：“这三个男孩里，小明高。”,1,necessarily,pos-t-comp-t-gao,upward
,,,,,,,,,,,,,,,,,,,1,not1,,,2020-08-12_17h32.50.583,XpragNot,2020.1.2,Win32,60,,,0,6.367,space,1.917,0,31,31,21,1,语境：图片中的女生在比较三个蒙古包的面积大小。她觉得100平方米算是大的蒙古包。,img/da_comp.png,句子：“B蒙古包不大。”,1,possibly,pos-f-comp-t-buda,downward_not
1,16.63723,space,20.727085,1,28.26185,space,21.473255,0,0,0,0,1,语境：男生让女生选择吃什么。除了门口的黑板，手机上也可以查到菜单。,trainingImg/amb1.png,句子：“男生正在等待女生， 手里握着一个手机。”,“手里握着手机”的可指“男生”，也可指“女生”。图片中确实有握着手机的女生。句子可以真实描述图片。,1,possibly,1,not2,Female,31,2020-08-12_22h57.04.032,XpragNot,2020.1.2,Win32,60,,,,,,,,,,,,,,,,,,
,,,,0,52.555125,space,45.4529,0,1,1,1,1,语境：男生让女生选择吃什么。除了门口的黑板，手机上也可以查到菜单。,trainingImg/amb2.png,句子：“男生正在等待女生， 手里握着一个手机。”,“手里握着手机”的可指“男生”，也可指“女生”。图片中确实有握着手机的男生。句子可以真实描述图片。,1,possibly,1,not2,Female,31,2020-08-12_22h57.04.032,XpragNot,2020.1.2,Win32,60,,,,,,,,,,,,,,,,,,
,,,,0,24.776555,space,18.931545,0,2,2,2,1,语境：女生躺在病床上睡着了。一会需要清洁纸巾。,trainingImg/noamb1v2.png,句子：“男生正在等待女生， 手里握着一个手机。”,“手里握着手机”的可指“男生”，也可指“女生”。图片中并没有握着手机的男生/女生。句子不可以真实描述图片。,0,necessarily,1,not2,Female,31,2020-08-12_22h57.04.032,XpragNot,2020.1.2,Win32,60,,,,,,,,,,,,,,,,,,
,,,,1,8.949405,space,1.62436,0,3,3,3,1,语境：女生躺在病床上睡着了。一会需要清洁纸巾。,trainingImg/noamb1v2.png,句子：“男生正在等待女生， 手里握着一张清洁纸巾。”,“手里握着清洁纸巾”的可指“男生”，也可指“女生”。图片中确实有握纸巾的男生。句子可以真实描述图片。,1,necessarily,1,not2,Female,31,2020-08-12_22h57.04.032,XpragNot,2020.1.2,Win32,60,,,,,,,,,,,,,,,,,,
,,,,,,,,,,,,,,,,,,,1,not2,Female,31,2020-08-12_22h57.04.032,XpragNot,2020.1.2,Win32,60,space,17.652415,0,14.11052,space,11.698685,0,0,0,6,1,语境：图片中的女生觉得15万算是贵的车。她在比较三辆车的价格。,img/gui_comp.png,句子：“红车不贵。”,0,necessarily,pos-t-comp-t-bugui,downward_not
,,,,,,,,,,,,,,,,,,,1,not2,Female,31,2020-08-12_22h57.04.032,XpragNot,2020.1.2,Win32,60,,,0,5.506765,space,2.23941,0,1,1,3,1,语境：图片中的女生在比较三辆车的价格。她觉得18万算是贵的车。,img/gui_pos.png,句子：“红车贵。”,0,necessarily,pos-f-comp-f-gui,upward
,,,,,,,,,,,,,,,,,,,1,not2,Female,31,2020-08-12_22h57.04.032,XpragNot,2020.1.2,Win32,60,,,0,22.35644,space,19.655135,0,2,2,11,1,语境：图片中的女生在比较三个男生的身高。她觉得195cm算是高的男生。,img/gao_pos.png,句子：“小明高。”,0,necessarily,pos-f-comp-f-gao,upward
,,,,,,,,,,,,,,,,,,,1,not2,Female,31,2020-08-12_22h57.04.032,XpragNot,2020.1.2,Win32,60,,,1,13.73074,space,20.63068,0,3,3,18,1,语境：图片中的女生觉得20平方米算是大的蒙古包。她在比较三个蒙古包的面积大小。,img/da_comp.png,句子：“这三个蒙古包里，B蒙古包大。”,1,necessarily,pos-t-comp-t-da,upward
,,,,,,,,,,,,,,,,,,,1,not2,Female,31,2020-08-12_22h57.04.032,XpragNot,2020.1.2,Win32,60,,,0,24.253025,space,20.41041,0,4,4,27,1,语境：图片中的女生在比较三辆车的时速。她觉得时速130算是快的车速。,img/kuai_pos.png,句子：“我们的这辆车快。”,0,necessarily,pos-f-comp-f-kuai,upward
,,,,,,,,,,,,,,,,,,,1,not2,Female,31,2020-08-12_22h57.04.032,XpragNot,2020.1.2,Win32,60,,,0,7.471945,space,3.857055,0,5,5,30,1,语境：图片中的女生觉得时速110算是快的车速。她在比较三辆车的车速。,img/kuai_comp.png,句子：“我们的这辆车不快。”,0,necessarily,pos-t-comp-t-bukuai,downward_not
,,,,,,,,,,,,,,,,,,,1,not2,Female,31,2020-08-12_22h57.04.032,XpragNot,2020.1.2,Win32,60,,,0,11.89942,space,8.547745,0,6,6,28,1,语境：图片中的女生觉得时速90km算是快的车。她坐在副驾驶。,img/kuai_pos.png,句子：“这三辆车里，我们的这辆车不快。”,1,possibly,pos-t-comp-f-bukuai,downward_not
,,,,,,,,,,,,,,,,,,,1,not2,Female,31,2020-08-12_22h57.04.032,XpragNot,2020.1.2,Win32,60,,,1,14.330985,space,10.892745,0,7,7,0,1,语境：图片中的女生觉得7万算是贵的车。她想买车。,img/gui_pos.png,句子：“红车贵。”,1,possibly,pos-t-comp-f-gui,upward
,,,,,,,,,,,,,,,,,,,1,not2,Female,31,2020-08-12_22h57.04.032,XpragNot,2020.1.2,Win32,60,,,1,13.803865,space,25.94178,0,8,8,1,1,语境：图片中的女生在比较三辆车的价格。她觉得30万算是贵的车。,img/gui_comp.png,句子：“这三个车里，红车贵。”,1,possibly,pos-f-comp-t-gui,upward
,,,,,,,,,,,,,,,,,,,1,not2,Female,31,2020-08-12_22h57.04.032,XpragNot,2020.1.2,Win32,60,,,1,6.699375,space,3.270595,0,9,9,16,1,语境：图片中的女生觉得20平方米算是大的蒙古包。她想租蒙古包。,img/da_pos.png,句子：“B蒙古包大。”,1,possibly,pos-t-comp-f-da,upward
,,,,,,,,,,,,,,,,,,,1,not2,Female,31,2020-08-12_22h57.04.032,XpragNot,2020.1.2,Win32,60,,,1,9.387615,space,5.151235,0,10,10,20,1,语境：图片中的女生觉得20平方米算是大的蒙古包。她想租蒙古包。,img/da_pos.png,句子：“这三个蒙古包里，B蒙古包不大。”,1,possibly,pos-t-comp-f-buda,downward_not
,,,,,,,,,,,,,,,,,,,1,not2,Female,31,2020-08-12_22h57.04.032,XpragNot,2020.1.2,Win32,60,,,1,8.16201,space,5.870665,0,11,11,12,1,语境：图片中的女生觉得170cm算是高的男生。她在和男生聊天。,img/gao_pos.png,句子：“这三个男生里，小明不高。”,1,possibly,pos-t-comp-f-bugao,downward_not
,,,,,,,,,,,,,,,,,,,1,not2,Female,31,2020-08-12_22h57.04.032,XpragNot,2020.1.2,Win32,60,,,1,4.700035,space,0.485725,0,12,12,8,1,语境：图片中的女生觉得170cm算是高的男生。她在和男生聊天。,img/gao_pos.png,句子：“小明高。”,1,possibly,pos-t-comp-f-gao,upward
,,,,,,,,,,,,,,,,,,,1,not2,Female,31,2020-08-12_22h57.04.032,XpragNot,2020.1.2,Win32,60,,,1,3.26817,space,4.95123,0,13,13,24,1,语境：图片中的女生觉得时速90km算是快的车。她坐在副驾驶。,img/kuai_pos.png,句子：“我们的这辆车快。”,1,possibly,pos-t-comp-f-kuai,upward
,,,,,,,,,,,,,,,,,,,1,not2,Female,31,2020-08-12_22h57.04.032,XpragNot,2020.1.2,Win32,60,,,1,25.13828,space,21.06136,0,14,14,2,1,语境：图片中的女生觉得15万算是贵的车。她在比较三辆车的价格。,img/gui_comp.png,句子：“这三个车里，红车贵。”,1,necessarily,pos-t-comp-t-gui,upward
,,,,,,,,,,,,,,,,,,,1,not2,Female,31,2020-08-12_22h57.04.032,XpragNot,2020.1.2,Win32,60,,,1,4.65366,space,1.211075,0,15,15,17,1,语境：图片中的女生在比较三个蒙古包的面积大小。她觉得100平方米算是大的蒙古包。,img/da_comp.png,句子：“这三个蒙古包里，B蒙古包大。”,1,possibly,pos-f-comp-t-da,upward
,,,,,,,,,,,,,,,,,,,1,not2,Female,31,2020-08-12_22h57.04.032,XpragNot,2020.1.2,Win32,60,,,1,7.050525,space,3.03634,0,16,16,5,1,语境：图片中的女生在比较三辆车的价格。她觉得30万算是贵的车。,img/gui_comp.png,句子：“红车不贵。”,1,possibly,pos-f-comp-t-bugui,downward_not
,,,,,,,,,,,,,,,,,,,1,not2,Female,31,2020-08-12_22h57.04.032,XpragNot,2020.1.2,Win32,60,,,1,25.062615,space,21.83483,0,17,17,26,1,语境：图片中的女生觉得时速70算是快的车速。她在比较三辆车的车速。,img/kuai_comp.png,句子：“这三辆车里，我们的这辆车快。”,1,necessarily,pos-t-comp-t-kuai,upward
,,,,,,,,,,,,,,,,,,,1,not2,Female,31,2020-08-12_22h57.04.032,XpragNot,2020.1.2,Win32,60,,,1,4.720775,space,3.083,0,18,18,23,1,语境：图片中的女生在比较三个蒙古包的面积大小。她觉得50平方米算是大的蒙古包。,img/da_pos.png,句子：“这三个蒙古包里，B蒙古包不大。”,1,necessarily,pos-f-comp-f-buda,downward_not
,,,,,,,,,,,,,,,,,,,1,not2,Female,31,2020-08-12_22h57.04.032,XpragNot,2020.1.2,Win32,60,,,1,3.38493,space,2.31108,0,19,19,7,1,语境：图片中的女生在比较三辆车的价格。她觉得18万算是贵的车。,img/gui_pos.png,句子：“这三个车里，红车不贵。”,1,necessarily,pos-f-comp-f-bugui,downward_not
,,,,,,,,,,,,,,,,,,,1,not2,Female,31,2020-08-12_22h57.04.032,XpragNot,2020.1.2,Win32,60,,,1,3.802985,space,1.100655,0,20,20,31,1,语境：图片中的女生在比较三辆车的时速。她觉得时速130算是快的车速。,img/kuai_pos.png,句子：“这三辆车里，我们的这辆车不快。”,1,necessarily,pos-f-comp-f-bukuai,downward_not
,,,,,,,,,,,,,,,,,,,1,not2,Female,31,2020-08-12_22h57.04.032,XpragNot,2020.1.2,Win32,60,,,1,5.30658,space,1.47875,0,21,21,10,1,语境：图片中的女生觉得155cm算是高的男孩。她在比较三个男孩的身高。,img/gao_comp.png,句子：“这三个男孩里，小明高。”,1,necessarily,pos-t-comp-t-gao,upward
,,,,,,,,,,,,,,,,,,,1,not2,Female,31,2020-08-12_22h57.04.032,XpragNot,2020.1.2,Win32,60,,,1,4.553065,space,0.802235,0,22,22,25,1,语境：图片中的女生在比较三辆车的时速。她觉得时速160算是快的车速。,img/kuai_comp.png,句子：“这三辆车里，我们的这辆车快。”,1,possibly,pos-f-comp-t-kuai,upward
,,,,,,,,,,,,,,,,,,,1,not2,Female,31,2020-08-12_22h57.04.032,XpragNot,2020.1.2,Win32,60,,,0,5.869635,space,1.66725,0,23,23,19,1,语境：图片中的女生在比较三个蒙古包的面积大小。她觉得90平方米算是大的蒙古包。,img/da_pos.png,句子：“B蒙古包大。”,0,necessarily,pos-f-comp-f-da,upward
,,,,,,,,,,,,,,,,,,,1,not2,Female,31,2020-08-12_22h57.04.032,XpragNot,2020.1.2,Win32,60,,,1,5.09444,space,0.409135,0,24,24,9,1,语境：图片中的女生在比较三个男生的身高。她觉得190cm算是高的男生。,img/gao_comp.png,句子：“这三个男生里，小明高。”,1,possibly,pos-f-comp-t-gao,upward
,,,,,,,,,,,,,,,,,,,1,not2,Female,31,2020-08-12_22h57.04.032,XpragNot,2020.1.2,Win32,60,,,0,8.376545,space,3.841385,0,25,25,22,1,语境：图片中的女生觉得50平方米算是大的蒙古包。她在比较三个蒙古包的面积大小。,img/da_comp.png,句子：“B蒙古包不大。”,0,necessarily,pos-t-comp-t-buda,downward_not
,,,,,,,,,,,,,,,,,,,1,not2,Female,31,2020-08-12_22h57.04.032,XpragNot,2020.1.2,Win32,60,,,1,12.65694,space,8.10839,0,26,26,29,1,语境：图片中的女生在比较三辆车的时速。她觉得时速160算是快的车速。,img/kuai_comp.png,句子：“我们的这辆车不快。”,1,possibly,pos-f-comp-t-bukuai,downward_not
,,,,,,,,,,,,,,,,,,,1,not2,Female,31,2020-08-12_22h57.04.032,XpragNot,2020.1.2,Win32,60,,,0,6.55396,space,4.09076,0,27,27,4,1,语境：图片中的女生觉得7万算是贵的车。她想买车。,img/gui_pos.png,句子：“这三个车里，红车不贵。”,1,possibly,pos-t-comp-f-bugui,downward_not
,,,,,,,,,,,,,,,,,,,1,not2,Female,31,2020-08-12_22h57.04.032,XpragNot,2020.1.2,Win32,60,,,1,7.640095,space,3.00554,0,28,28,21,1,语境：图片中的女生在比较三个蒙古包的面积大小。她觉得100平方米算是大的蒙古包。,img/da_comp.png,句子：“B蒙古包不大。”,1,possibly,pos-f-comp-t-buda,downward_not
,,,,,,,,,,,,,,,,,,,1,not2,Female,31,2020-08-12_22h57.04.032,XpragNot,2020.1.2,Win32,60,,,1,2.571765,space,1.550265,0,29,29,13,1,语境：图片中的女生在比较三个男生的身高。她觉得190cm算是高的男生。,img/gao_comp.png,句子：“小明不高。”,1,possibly,pos-f-comp-t-bugao,downward_not
,,,,,,,,,,,,,,,,,,,1,not2,Female,31,2020-08-12_22h57.04.032,XpragNot,2020.1.2,Win32,60,,,1,4.16222,space,0.385295,0,30,30,15,1,语境：图片中的女生在比较三个男生的身高。她觉得195cm算是高的男生。,img/gao_pos.png,句子：“这三个男生里，小明不高。”,1,necessarily,pos-f-comp-f-bugao,downward_not
,,,,,,,,,,,,,,,,,,,1,not2,Female,31,2020-08-12_22h57.04.032,XpragNot,2020.1.2,Win32,60,,,0,8.20174,space,3.59524,0,31,31,14,1,语境：图片中的女生觉得173cm算是高的男孩。她在比较三个男孩的身高。,img/gao_comp.png,句子：“小明不高。”,0,necessarily,pos-t-comp-t-bugao,downward_not
,,space,2.95439,0,9.20386,space,2.20033,0,0,0,0,1,语境：男生让女生选择吃什么。除了门口的黑板，手机上也可以查到菜单。,trainingImg/amb1.png,句子：“男生正在等待女生， 手里握着一个手机。”,“手里握着手机”的可指“男生”，也可指“女生”。图片中确实有握着手机的女生。句子可以真实描述图片。,1,possibly,1,not3,male,31,2020-08-12_23h31.57.313,XpragNot,2020.1.2,Win32,60,,,,,,,,,,,,,,,,,,
,,,,1,6.213135,space,3.5235,0,1,1,1,1,语境：男生让女生选择吃什么。除了门口的黑板，手机上也可以查到菜单。,trainingImg/amb2.png,句子：“男生正在等待女生， 手里握着一个手机。”,“手里握着手机”的可指“男生”，也可指“女生”。图片中确实有握着手机的男生。句子可以真实描述图片。,1,possibly,1,not3,male,31,2020-08-12_23h31.57.313,XpragNot,2020.1.2,Win32,60,,,,,,,,,,,,,,,,,,
,,,,0,9.21089,space,0.85044,0,2,2,2,1,语境：女生躺在病床上睡着了。一会需要清洁纸巾。,trainingImg/noamb1v2.png,句子：“男生正在等待女生， 手里握着一个手机。”,“手里握着手机”的可指“男生”，也可指“女生”。图片中并没有握着手机的男生/女生。句子不可以真实描述图片。,0,necessarily,1,not3,male,31,2020-08-12_23h31.57.313,XpragNot,2020.1.2,Win32,60,,,,,,,,,,,,,,,,,,
,,,,1,10.729355,space,2.46916,0,3,3,3,1,语境：女生躺在病床上睡着了。一会需要清洁纸巾。,trainingImg/noamb1v2.png,句子：“男生正在等待女生， 手里握着一张清洁纸巾。”,“手里握着清洁纸巾”的可指“男生”，也可指“女生”。图片中确实有握纸巾的男生。句子可以真实描述图片。,1,necessarily,1,not3,male,31,2020-08-12_23h31.57.313,XpragNot,2020.1.2,Win32,60,,,,,,,,,,,,,,,,,,
,,,,,,,,,,,,,,,,,,,1,not3,male,31,2020-08-12_23h31.57.313,XpragNot,2020.1.2,Win32,60,space,1.25557,0,60.92335,space,57.18917,0,0,0,22,1,语境：图片中的女生觉得50平方米算是大的蒙古包。她在比较三个蒙古包的面积大小。,img/da_comp.png,句子：“B蒙古包不大。”,0,necessarily,pos-t-comp-t-buda,downward_not
,,,,,,,,,,,,,,,,,,,1,not3,male,31,2020-08-12_23h31.57.313,XpragNot,2020.1.2,Win32,60,,,0,10.9118,space,11.81797,0,1,1,9,1,语境：图片中的女生在比较三个男生的身高。她觉得190cm算是高的男生。,img/gao_comp.png,句子：“这三个男生里，小明高。”,1,possibly,pos-f-comp-t-gao,upward
,,,,,,,,,,,,,,,,,,,1,not3,male,31,2020-08-12_23h31.57.313,XpragNot,2020.1.2,Win32,60,,,1,23.671175,space,19.125435,0,2,2,2,1,语境：图片中的女生觉得15万算是贵的车。她在比较三辆车的价格。,img/gui_comp.png,句子：“这三个车里，红车贵。”,1,necessarily,pos-t-comp-t-gui,upward
,,,,,,,,,,,,,,,,,,,1,not3,male,31,2020-08-12_23h31.57.313,XpragNot,2020.1.2,Win32,60,,,1,12.005055,space,7.31763,0,3,3,31,1,语境：图片中的女生在比较三辆车的时速。她觉得时速130算是快的车速。,img/kuai_pos.png,句子：“这三辆车里，我们的这辆车不快。”,1,necessarily,pos-f-comp-f-bukuai,downward_not
,,,,,,,,,,,,,,,,,,,1,not3,male,31,2020-08-12_23h31.57.313,XpragNot,2020.1.2,Win32,60,,,1,6.55207,space,2.401945,0,4,4,16,1,语境：图片中的女生觉得20平方米算是大的蒙古包。她想租蒙古包。,img/da_pos.png,句子：“B蒙古包大。”,1,possibly,pos-t-comp-f-da,upward
,,,,,,,,,,,,,,,,,,,1,not3,male,31,2020-08-12_23h31.57.313,XpragNot,2020.1.2,Win32,60,,,1,9.56229,space,10.94534,0,5,5,15,1,语境：图片中的女生在比较三个男生的身高。她觉得195cm算是高的男生。,img/gao_pos.png,句子：“这三个男生里，小明不高。”,1,necessarily,pos-f-comp-f-bugao,downward_not
,,,,,,,,,,,,,,,,,,,1,not3,male,31,2020-08-12_23h31.57.313,XpragNot,2020.1.2,Win32,60,,,0,8.70203,space,4.074765,0,6,6,17,1,语境：图片中的女生在比较三个蒙古包的面积大小。她觉得100平方米算是大的蒙古包。,img/da_comp.png,句子：“这三个蒙古包里，B蒙古包大。”,1,possibly,pos-f-comp-t-da,upward
,,,,,,,,,,,,,,,,,,,1,not3,male,31,2020-08-12_23h31.57.313,XpragNot,2020.1.2,Win32,60,,,1,8.89652,space,4.34035,0,7,7,7,1,语境：图片中的女生在比较三辆车的价格。她觉得18万算是贵的车。,img/gui_pos.png,句子：“这三个车里，红车不贵。”,1,necessarily,pos-f-comp-f-bugui,downward_not
,,,,,,,,,,,,,,,,,,,1,not3,male,31,2020-08-12_23h31.57.313,XpragNot,2020.1.2,Win32,60,,,0,6.131255,space,1.61732,0,8,8,20,1,语境：图片中的女生觉得20平方米算是大的蒙古包。她想租蒙古包。,img/da_pos.png,句子：“这三个蒙古包里，B蒙古包不大。”,1,possibly,pos-t-comp-f-buda,downward_not
,,,,,,,,,,,,,,,,,,,1,not3,male,31,2020-08-12_23h31.57.313,XpragNot,2020.1.2,Win32,60,,,0,4.968065,space,0.30403,0,9,9,1,1,语境：图片中的女生在比较三辆车的价格。她觉得30万算是贵的车。,img/gui_comp.png,句子：“这三个车里，红车贵。”,1,possibly,pos-f-comp-t-gui,upward
,,,,,,,,,,,,,,,,,,,1,not3,male,31,2020-08-12_23h31.57.313,XpragNot,2020.1.2,Win32,60,,,0,5.586485,space,0.93474,0,10,10,4,1,语境：图片中的女生觉得7万算是贵的车。她想买车。,img/gui_pos.png,句子：“这三个车里，红车不贵。”,1,possibly,pos-t-comp-f-bugui,downward_not
,,,,,,,,,,,,,,,,,,,1,not3,male,31,2020-08-12_23h31.57.313,XpragNot,2020.1.2,Win32,60,,,1,7.48613,space,2.82585,0,11,11,8,1,语境：图片中的女生觉得170cm算是高的男生。她在和男生聊天。,img/gao_pos.png,句子：“小明高。”,1,possibly,pos-t-comp-f-gao,upward
,,,,,,,,,,,,,,,,,,,1,not3,male,31,2020-08-12_23h31.57.313,XpragNot,2020.1.2,Win32,60,,,0,8.10101,space,3.448345,0,12,12,3,1,语境：图片中的女生在比较三辆车的价格。她觉得18万算是贵的车。,img/gui_pos.png,句子：“红车贵。”,0,necessarily,pos-f-comp-f-gui,upward
,,,,,,,,,,,,,,,,,,,1,not3,male,31,2020-08-12_23h31.57.313,XpragNot,2020.1.2,Win32,60,,,0,11.463735,space,7.214105,0,13,13,26,1,语境：图片中的女生觉得时速70算是快的车速。她在比较三辆车的车速。,img/kuai_comp.png,句子：“这三辆车里，我们的这辆车快。”,1,necessarily,pos-t-comp-t-kuai,upward
,,,,,,,,,,,,,,,,,,,1,not3,male,31,2020-08-12_23h31.57.313,XpragNot,2020.1.2,Win32,60,,,0,10.78708,space,6.071205,0,14,14,6,1,语境：图片中的女生觉得15万算是贵的车。她在比较三辆车的价格。,img/gui_comp.png,句子：“红车不贵。”,0,necessarily,pos-t-comp-t-bugui,downward_not
,,,,,,,,,,,,,,,,,,,1,not3,male,31,2020-08-12_23h31.57.313,XpragNot,2020.1.2,Win32,60,,,1,7.749495,space,3.133395,0,15,15,24,1,语境：图片中的女生觉得时速90km算是快的车。她坐在副驾驶。,img/kuai_pos.png,句子：“我们的这辆车快。”,1,possibly,pos-t-comp-f-kuai,upward
,,,,,,,,,,,,,,,,,,,1,not3,male,31,2020-08-12_23h31.57.313,XpragNot,2020.1.2,Win32,60,,,1,4.971595,space,2.70174,0,16,16,29,1,语境：图片中的女生在比较三辆车的时速。她觉得时速160算是快的车速。,img/kuai_comp.png,句子：“我们的这辆车不快。”,1,possibly,pos-f-comp-t-bukuai,downward_not
,,,,,,,,,,,,,,,,,,,1,not3,male,31,2020-08-12_23h31.57.313,XpragNot,2020.1.2,Win32,60,,,0,5.216525,space,0.597735,0,17,17,25,1,语境：图片中的女生在比较三辆车的时速。她觉得时速160算是快的车速。,img/kuai_comp.png,句子：“这三辆车里，我们的这辆车快。”,1,possibly,pos-f-comp-t-kuai,upward
,,,,,,,,,,,,,,,,,,,1,not3,male,31,2020-08-12_23h31.57.313,XpragNot,2020.1.2,Win32,60,,,0,7.586475,space,2.99965,0,18,18,12,1,语境：图片中的女生觉得170cm算是高的男生。她在和男生聊天。,img/gao_pos.png,句子：“这三个男生里，小明不高。”,1,possibly,pos-t-comp-f-bugao,downward_not
,,,,,,,,,,,,,,,,,,,1,not3,male,31,2020-08-12_23h31.57.313,XpragNot,2020.1.2,Win32,60,,,0,18.577095,space,14.266505,0,19,19,30,1,语境：图片中的女生觉得时速110算是快的车速。她在比较三辆车的车速。,img/kuai_comp.png,句子：“我们的这辆车不快。”,0,necessarily,pos-t-comp-t-bukuai,downward_not
,,,,,,,,,,,,,,,,,,,1,not3,male,31,2020-08-12_23h31.57.313,XpragNot,2020.1.2,Win32,60,,,0,10.75508,space,6.33132,0,20,20,19,1,语境：图片中的女生在比较三个蒙古包的面积大小。她觉得90平方米算是大的蒙古包。,img/da_pos.png,句子：“B蒙古包大。”,0,necessarily,pos-f-comp-f-da,upward
,,,,,,,,,,,,,,,,,,,1,not3,male,31,2020-08-12_23h31.57.313,XpragNot,2020.1.2,Win32,60,,,1,20.222375,space,16.02441,0,21,21,0,1,语境：图片中的女生觉得7万算是贵的车。她想买车。,img/gui_pos.png,句子：“红车贵。”,1,possibly,pos-t-comp-f-gui,upward
,,,,,,,,,,,,,,,,,,,1,not3,male,31,2020-08-12_23h31.57.313,XpragNot,2020.1.2,Win32,60,,,1,16.62847,space,12.524465,0,22,22,21,1,语境：图片中的女生在比较三个蒙古包的面积大小。她觉得100平方米算是大的蒙古包。,img/da_comp.png,句子：“B蒙古包不大。”,1,possibly,pos-f-comp-t-buda,downward_not
,,,,,,,,,,,,,,,,,,,1,not3,male,31,2020-08-12_23h31.57.313,XpragNot,2020.1.2,Win32,60,,,0,9.11331,space,4.831415,0,23,23,14,1,语境：图片中的女生觉得173cm算是高的男孩。她在比较三个男孩的身高。,img/gao_comp.png,句子：“小明不高。”,0,necessarily,pos-t-comp-t-bugao,downward_not
,,,,,,,,,,,,,,,,,,,1,not3,male,31,2020-08-12_23h31.57.313,XpragNot,2020.1.2,Win32,60,,,1,6.86113,space,4.106925,0,24,24,23,1,语境：图片中的女生在比较三个蒙古包的面积大小。她觉得50平方米算是大的蒙古包。,img/da_pos.png,句子：“这三个蒙古包里，B蒙古包不大。”,1,necessarily,pos-f-comp-f-buda,downward_not
,,,,,,,,,,,,,,,,,,,1,not3,male,31,2020-08-12_23h31.57.313,XpragNot,2020.1.2,Win32,60,,,0,4.144945,space,1.8192,0,25,25,27,1,语境：图片中的女生在比较三辆车的时速。她觉得时速130算是快的车速。,img/kuai_pos.png,句子：“我们的这辆车快。”,0,necessarily,pos-f-comp-f-kuai,upward
,,,,,,,,,,,,,,,,,,,1,not3,male,31,2020-08-12_23h31.57.313,XpragNot,2020.1.2,Win32,60,,,1,4.216545,space,0.10259,0,26,26,13,1,语境：图片中的女生在比较三个男生的身高。她觉得190cm算是高的男生。,img/gao_comp.png,句子：“小明不高。”,1,possibly,pos-f-comp-t-bugao,downward_not
,,,,,,,,,,,,,,,,,,,1,not3,male,31,2020-08-12_23h31.57.313,XpragNot,2020.1.2,Win32,60,,,1,6.48083,space,1.748565,0,27,27,5,1,语境：图片中的女生在比较三辆车的价格。她觉得30万算是贵的车。,img/gui_comp.png,句子：“红车不贵。”,1,possibly,pos-f-comp-t-bugui,downward_not
,,,,,,,,,,,,,,,,,,,1,not3,male,31,2020-08-12_23h31.57.313,XpragNot,2020.1.2,Win32,60,,,0,8.164755,space,7.896105,0,28,28,18,1,语境：图片中的女生觉得20平方米算是大的蒙古包。她在比较三个蒙古包的面积大小。,img/da_comp.png,句子：“这三个蒙古包里，B蒙古包大。”,1,necessarily,pos-t-comp-t-da,upward
,,,,,,,,,,,,,,,,,,,1,not3,male,31,2020-08-12_23h31.57.313,XpragNot,2020.1.2,Win32,60,,,0,11.78079,space,7.421115,0,29,29,11,1,语境：图片中的女生在比较三个男生的身高。她觉得195cm算是高的男生。,img/gao_pos.png,句子：“小明高。”,0,necessarily,pos-f-comp-f-gao,upward
,,,,,,,,,,,,,,,,,,,1,not3,male,31,2020-08-12_23h31.57.313,XpragNot,2020.1.2,Win32,60,,,0,6.8365,space,2.18334,0,30,30,28,1,语境：图片中的女生觉得时速90km算是快的车。她坐在副驾驶。,img/kuai_pos.png,句子：“这三辆车里，我们的这辆车不快。”,1,possibly,pos-t-comp-f-bukuai,downward_not
,,,,,,,,,,,,,,,,,,,1,not3,male,31,2020-08-12_23h31.57.313,XpragNot,2020.1.2,Win32,60,,,0,16.09256,space,11.89681,0,31,31,10,1,语境：图片中的女生觉得155cm算是高的男孩。她在比较三个男孩的身高。,img/gao_comp.png,句子：“这三个男孩里，小明高。”,1,necessarily,pos-t-comp-t-gao,upward
,,space,23.685895,1,34.456315,space,32.330425,0,0,0,0,1,语境：男生让女生选择吃什么。除了门口的黑板，手机上也可以查到菜单。,trainingImg/amb1.png,句子：“男生正在等待女生， 手里握着一个手机。”,“手里握着手机”的可指“男生”，也可指“女生”。图片中确实有握着手机的女生。句子可以真实描述图片。,1,possibly,2,nb0,Male,20,2020-08-12_14h05.08.135,XpragNb,2020.1.2,Win32,60,,,,,,,,,,,,,,,,,,
,,,,0,35.036855,space,28.49622,0,1,1,1,1,语境：男生让女生选择吃什么。除了门口的黑板，手机上也可以查到菜单。,trainingImg/amb2.png,句子：“男生正在等待女生， 手里握着一个手机。”,“手里握着手机”的可指“男生”，也可指“女生”。图片中确实有握着手机的男生。句子可以真实描述图片。,1,possibly,2,nb0,Male,20,2020-08-12_14h05.08.135,XpragNb,2020.1.2,Win32,60,,,,,,,,,,,,,,,,,,
,,,,0,11.5035,space,7.62348,0,2,2,2,1,语境：女生躺在病床上睡着了。一会需要清洁纸巾。,trainingImg/noamb1v2.png,句子：“男生正在等待女生， 手里握着一个手机。”,“手里握着手机”的可指“男生”，也可指“女生”。图片中并没有握着手机的男生/女生。句子不可以真实描述图片。,0,necessarily,2,nb0,Male,20,2020-08-12_14h05.08.135,XpragNb,2020.1.2,Win32,60,,,,,,,,,,,,,,,,,,
,,,,1,15.026185,space,8.336885,0,3,3,3,1,语境：女生躺在病床上睡着了。一会需要清洁纸巾。,trainingImg/noamb1v2.png,句子：“男生正在等待女生， 手里握着一张清洁纸巾。”,“手里握着清洁纸巾”的可指“男生”，也可指“女生”。图片中确实有握纸巾的男生。句子可以真实描述图片。,1,necessarily,2,nb0,Male,20,2020-08-12_14h05.08.135,XpragNb,2020.1.2,Win32,60,,,,,,,,,,,,,,,,,,
,,,,,,,,,,,,,,,,,,,2,nb0,Male,20,2020-08-12_14h05.08.135,XpragNb,2020.1.2,Win32,60,space,2.38282,0,24.326965,space,20.87396,0,0,0,15,1,语境：图片中的女生在比较三个男生的身高。她觉得195cm算是高的男生。,img/gao_eq.png,句子：“没有一个男生高。”,1,necessarily,pos-f-comp-f-nothinggao,downward_nothing
,,,,,,,,,,,,,,,,,,,2,nb0,Male,20,2020-08-12_14h05.08.135,XpragNb,2020.1.2,Win32,60,,,0,26.195675,space,22.408355,0,1,1,14,1,语境：图片中的女生觉得155cm算是高的男孩。她在比较三个男孩的身高。,img/gao_comp.png,句子：“没有一个男孩高。”,0,necessarily,pos-t-comp-t-nothinggao,downward_nothing
,,,,,,,,,,,,,,,,,,,2,nb0,Male,20,2020-08-12_14h05.08.135,XpragNb,2020.1.2,Win32,60,,,1,22.519105,space,22.56242,0,2,2,18,1,语境：图片中的女生觉得20平方米算是大的蒙古包。她在比较三个蒙古包的面积大小。,img/da_comp.png,句子：“B蒙古包大。”,1,necessarily,pos-t-comp-t-da,upward
,,,,,,,,,,,,,,,,,,,2,nb0,Male,20,2020-08-12_14h05.08.135,XpragNb,2020.1.2,Win32,60,,,1,68.5093,space,63.884245,0,3,3,29,1,语境：图片中的女生在比较三辆车的时速。她觉得时速160算是快的车速。,img/kuai_comp.png,句子：“这三辆车里，没有一辆车快。”,1,possibly,pos-f-comp-t-nothingkuai,downward_nothing
,,,,,,,,,,,,,,,,,,,2,nb0,Male,20,2020-08-12_14h05.08.135,XpragNb,2020.1.2,Win32,60,,,1,11.742845,space,7.616815,0,4,4,8,1,语境：图片中的女生觉得170cm算是高的男生。她在和男生聊天。,img/gao_pos.png,句子：“小明高。”,1,possibly,pos-t-comp-f-gao,upward
,,,,,,,,,,,,,,,,,,,2,nb0,Male,20,2020-08-12_14h05.08.135,XpragNb,2020.1.2,Win32,60,,,0,6.541265,space,6.41755,0,5,5,22,1,语境：图片中的女生觉得20平方米算是大的蒙古包。她在比较三个蒙古包的面积大小。,img/da_comp.png,句子：“没有一个蒙古包大。”,0,necessarily,pos-t-comp-t-nothingda,downward_nothing
,,,,,,,,,,,,,,,,,,,2,nb0,Male,20,2020-08-12_14h05.08.135,XpragNb,2020.1.2,Win32,60,,,1,7.258455,space,2.59334,0,6,6,10,1,语境：图片中的女生觉得155cm算是高的男孩。她在比较三个男孩的身高。,img/gao_comp.png,句子：“小明高。”,1,necessarily,pos-t-comp-t-gao,upward
,,,,,,,,,,,,,,,,,,,2,nb0,Male,20,2020-08-12_14h05.08.135,XpragNb,2020.1.2,Win32,60,,,1,11.60066,space,8.49904,0,7,7,1,1,语境：图片中的女生在比较三辆车的价格。她觉得50万算是贵的车。,img/gui_comp.png,句子：“这三辆车里，红车贵。”,1,possibly,pos-f-comp-t-gui,upward
,,,,,,,,,,,,,,,,,,,2,nb0,Male,20,2020-08-12_14h05.08.135,XpragNb,2020.1.2,Win32,60,,,0,7.28577,space,4.287055,0,8,8,4,1,语境：图片中的女生觉得7万算是贵的车。她想买车。,img/gui_eq.png,句子：“没有一辆车贵。”,1,possibly,pos-t-comp-f-nothinggui,downward_nothing
,,,,,,,,,,,,,,,,,,,2,nb0,Male,20,2020-08-12_14h05.08.135,XpragNb,2020.1.2,Win32,60,,,0,8.398675,space,4.095345,0,9,9,6,1,语境：图片中的女生觉得2万算是贵的车。她在比较三辆车的价格。,img/gui_comp.png,句子：“没有一辆车贵。”,0,necessarily,pos-t-comp-t-nothinggui,downward_nothing
,,,,,,,,,,,,,,,,,,,2,nb0,Male,20,2020-08-12_14h05.08.135,XpragNb,2020.1.2,Win32,60,,,1,7.06741,space,2.46787,0,10,10,31,1,语境：图片中的女生在比较三辆车的时速。她觉得时速200算是快的车速。,img/kuai_eq.png,句子：“没有一辆车快。”,1,necessarily,pos-f-comp-f-nothingkuai,downward_nothing
,,,,,,,,,,,,,,,,,,,2,nb0,Male,20,2020-08-12_14h05.08.135,XpragNb,2020.1.2,Win32,60,,,1,12.581225,space,16.842795,0,11,11,13,1,语境：图片中的女生在比较三个男生的身高。她觉得190cm算是高的男生。,img/gao_comp.png,句子：“这三个男生里，没有一个男生高。”,1,possibly,pos-f-comp-t-nothinggao,downward_nothing
,,,,,,,,,,,,,,,,,,,2,nb0,Male,20,2020-08-12_14h05.08.135,XpragNb,2020.1.2,Win32,60,,,0,6.999655,space,2.301055,0,12,12,12,1,语境：图片中的女生觉得170cm算是高的男生。她在和男生聊天。,img/gao_eq.png,句子：“没有一个男生高。”,1,possibly,pos-t-comp-f-nothinggao,downward_nothing
,,,,,,,,,,,,,,,,,,,2,nb0,Male,20,2020-08-12_14h05.08.135,XpragNb,2020.1.2,Win32,60,,,0,7.635055,space,3.262975,0,13,13,19,1,语境：图片中的女生在比较三个蒙古包的面积大小。她觉得90平方米算是大的蒙古包。,img/da_pos.png,句子：“B蒙古包大。”,0,necessarily,pos-f-comp-f-da,upward
,,,,,,,,,,,,,,,,,,,2,nb0,Male,20,2020-08-12_14h05.08.135,XpragNb,2020.1.2,Win32,60,,,1,8.900825,space,5.478005,0,14,14,25,1,语境：图片中的女生在比较三辆车的时速。她觉得时速160算是快的车速。,img/kuai_comp.png,句子：“这三辆车里，我们的这辆车快。”,1,possibly,pos-f-comp-t-kuai,upward
,,,,,,,,,,,,,,,,,,,2,nb0,Male,20,2020-08-12_14h05.08.135,XpragNb,2020.1.2,Win32,60,,,1,8.04006,space,6.51693,0,15,15,5,1,语境：图片中的女生在比较三辆车的价格。她觉得50万算是贵的车。,img/gui_comp.png,句子：“这三辆车里，没有一辆车贵。”,1,possibly,pos-f-comp-t-nothinggui,downward_nothing
,,,,,,,,,,,,,,,,,,,2,nb0,Male,20,2020-08-12_14h05.08.135,XpragNb,2020.1.2,Win32,60,,,1,12.57169,space,8.46982,0,16,16,9,1,语境：图片中的女生在比较三个男生的身高。她觉得190cm算是高的男生。,img/gao_comp.png,句子：“这三个男生里，小明高。”,1,possibly,pos-f-comp-t-gao,upward
,,,,,,,,,,,,,,,,,,,2,nb0,Male,20,2020-08-12_14h05.08.135,XpragNb,2020.1.2,Win32,60,,,0,8.033375,space,3.397055,0,17,17,20,1,语境：图片中的女生觉得20平方米算是大的蒙古包。她想租蒙古包。,img/da_eq.png,句子：“没有一个蒙古包大。”,1,possibly,pos-t-comp-f-nothingda,downward_nothing
,,,,,,,,,,,,,,,,,,,2,nb0,Male,20,2020-08-12_14h05.08.135,XpragNb,2020.1.2,Win32,60,,,1,5.08545,space,0.527425,0,18,18,2,1,语境：图片中的女生觉得2万算是贵的车。她在比较三辆车的价格。,img/gui_comp.png,句子：“红车贵。”,1,necessarily,pos-t-comp-t-gui,upward
,,,,,,,,,,,,,,,,,,,2,nb0,Male,20,2020-08-12_14h05.08.135,XpragNb,2020.1.2,Win32,60,,,0,8.27607,space,3.62225,0,19,19,30,1,语境：图片中的女生觉得时速70算是快的车速。她在比较三辆车的车速。,img/kuai_comp.png,句子：“没有一辆车快。”,0,necessarily,pos-t-comp-t-nothingkuai,downward_nothing
,,,,,,,,,,,,,,,,,,,2,nb0,Male,20,2020-08-12_14h05.08.135,XpragNb,2020.1.2,Win32,60,,,0,6.599655,space,1.88809,0,20,20,28,1,语境：图片中的女生觉得时速80km算是快的车。她坐在副驾驶。,img/kuai_eq.png,句子：“没有一辆车快。”,1,possibly,pos-t-comp-f-nothingkuai,downward_nothing
,,,,,,,,,,,,,,,,,,,2,nb0,Male,20,2020-08-12_14h05.08.135,XpragNb,2020.1.2,Win32,60,,,0,7.873435,space,3.428815,0,21,21,27,1,语境：图片中的女生在比较三辆车的时速。她觉得时速200算是快的车速。,img/kuai_pos.png,句子：“我们的这辆车快。”,0,necessarily,pos-f-comp-f-kuai,upward
,,,,,,,,,,,,,,,,,,,2,nb0,Male,20,2020-08-12_14h05.08.135,XpragNb,2020.1.2,Win32,60,,,1,12.30993,space,7.72367,0,22,22,21,1,语境：图片中的女生在比较三个蒙古包的面积大小。她觉得100平方米算是大的蒙古包。,img/da_comp.png,句子：“这三个蒙古包里，没有一个蒙古包大。”,1,possibly,pos-f-comp-t-nothingda,downward_nothing
,,,,,,,,,,,,,,,,,,,2,nb0,Male,20,2020-08-12_14h05.08.135,XpragNb,2020.1.2,Win32,60,,,1,5.288235,space,1.375175,0,23,23,17,1,语境：图片中的女生在比较三个蒙古包的面积大小。她觉得100平方米算是大的蒙古包。,img/da_comp.png,句子：“这三个蒙古包里，B蒙古包大。”,1,possibly,pos-f-comp-t-da,upward
,,,,,,,,,,,,,,,,,,,2,nb0,Male,20,2020-08-12_14h05.08.135,XpragNb,2020.1.2,Win32,60,,,1,7.41012,space,2.948235,0,24,24,16,1,语境：图片中的女生觉得20平方米算是大的蒙古包。她想租蒙古包。,img/da_pos.png,句子：“B蒙古包大。”,1,possibly,pos-t-comp-f-da,upward
,,,,,,,,,,,,,,,,,,,2,nb0,Male,20,2020-08-12_14h05.08.135,XpragNb,2020.1.2,Win32,60,,,1,4.53057,space,1.92965,0,25,25,23,1,语境：图片中的女生在比较三个蒙古包的面积大小。她觉得90平方米算是大的蒙古包。,img/da_eq.png,句子：“没有一个蒙古包大。”,1,necessarily,pos-f-comp-f-nothingda,downward_nothing
,,,,,,,,,,,,,,,,,,,2,nb0,Male,20,2020-08-12_14h05.08.135,XpragNb,2020.1.2,Win32,60,,,1,6.77869,space,2.161315,0,26,26,0,1,语境：图片中的女生觉得7万算是贵的车。她想买车。,img/gui_pos.png,句子：“红车贵。”,1,possibly,pos-t-comp-f-gui,upward
,,,,,,,,,,,,,,,,,,,2,nb0,Male,20,2020-08-12_14h05.08.135,XpragNb,2020.1.2,Win32,60,,,0,8.92031,space,4.34059,0,27,27,3,1,语境：图片中的女生在比较三辆车的价格。她觉得40万算是贵的车。,img/gui_pos.png,句子：“红车贵。”,0,necessarily,pos-f-comp-f-gui,upward
,,,,,,,,,,,,,,,,,,,2,nb0,Male,20,2020-08-12_14h05.08.135,XpragNb,2020.1.2,Win32,60,,,1,7.712515,space,3.25517,0,28,28,26,1,语境：图片中的女生觉得时速70算是快的车速。她在比较三辆车的车速。,img/kuai_comp.png,句子：“我们的这辆车快。”,1,necessarily,pos-t-comp-t-kuai,upward
,,,,,,,,,,,,,,,,,,,2,nb0,Male,20,2020-08-12_14h05.08.135,XpragNb,2020.1.2,Win32,60,,,1,4.583595,space,3.443095,0,29,29,24,1,语境：图片中的女生觉得时速80km算是快的车。她坐在副驾驶。,img/kuai_pos.png,句子：“我们的这辆车快。”,1,possibly,pos-t-comp-f-kuai,upward
,,,,,,,,,,,,,,,,,,,2,nb0,Male,20,2020-08-12_14h05.08.135,XpragNb,2020.1.2,Win32,60,,,1,5.019425,space,0.32082,0,30,30,7,1,语境：图片中的女生在比较三辆车的价格。她觉得40万算是贵的车。,img/gui_eq.png,句子：“没有一辆车贵。”,1,necessarily,pos-f-comp-f-nothinggui,downward_nothing
,,,,,,,,,,,,,,,,,,,2,nb0,Male,20,2020-08-12_14h05.08.135,XpragNb,2020.1.2,Win32,60,,,0,8.370565,space,3.68655,0,31,31,11,1,语境：图片中的女生在比较三个男生的身高。她觉得195cm算是高的男生。,img/gao_pos.png,句子：“小明高。”,0,necessarily,pos-f-comp-f-gao,upward
1,9.831,space,12.831,0,45.511,space,38.678,0,0,0,0,1,语境：男生让女生选择吃什么。除了门口的黑板，手机上也可以查到菜单。,trainingImg/amb1.png,句子：“男生正在等待女生， 手里握着一个手机。”,“手里握着手机”的可指“男生”，也可指“女生”。图片中确实有握着手机的女生。句子可以真实描述图片。,1,possibly,2,nb1,female,33,2020-08-12_21h47.05.548,XpragNb,2020.1.2,MacIntel,60,,,,,,,,,,,,,,,,,,
,,,,1,6.422,space,3.399,0,1,1,1,1,语境：男生让女生选择吃什么。除了门口的黑板，手机上也可以查到菜单。,trainingImg/amb2.png,句子：“男生正在等待女生， 手里握着一个手机。”,“手里握着手机”的可指“男生”，也可指“女生”。图片中确实有握着手机的男生。句子可以真实描述图片。,1,possibly,2,nb1,female,33,2020-08-12_21h47.05.548,XpragNb,2020.1.2,MacIntel,60,,,,,,,,,,,,,,,,,,
,,,,0,18.416,space,10.225,0,2,2,2,1,语境：女生躺在病床上睡着了。一会需要清洁纸巾。,trainingImg/noamb1v2.png,句子：“男生正在等待女生， 手里握着一个手机。”,“手里握着手机”的可指“男生”，也可指“女生”。图片中并没有握着手机的男生/女生。句子不可以真实描述图片。,0,necessarily,2,nb1,female,33,2020-08-12_21h47.05.548,XpragNb,2020.1.2,MacIntel,60,,,,,,,,,,,,,,,,,,
,,,,1,25.067,space,17.259,0,3,3,3,1,语境：女生躺在病床上睡着了。一会需要清洁纸巾。,trainingImg/noamb1v2.png,句子：“男生正在等待女生， 手里握着一张清洁纸巾。”,“手里握着清洁纸巾”的可指“男生”，也可指“女生”。图片中确实有握纸巾的男生。句子可以真实描述图片。,1,necessarily,2,nb1,female,33,2020-08-12_21h47.05.548,XpragNb,2020.1.2,MacIntel,60,,,,,,,,,,,,,,,,,,
,,,,,,,,,,,,,,,,,,,2,nb1,female,33,2020-08-12_21h47.05.548,XpragNb,2020.1.2,MacIntel,60,space,1.968,0,36.399,space,32.569,0,0,0,17,1,语境：图片中的女生在比较三个蒙古包的面积大小。她觉得100平方米算是大的蒙古包。,img/da_comp.png,句子：“这三个蒙古包里，B蒙古包大。”,1,possibly,pos-f-comp-t-da,upward
,,,,,,,,,,,,,,,,,,,2,nb1,female,33,2020-08-12_21h47.05.548,XpragNb,2020.1.2,MacIntel,60,,,1,71.794,space,67.851,0,1,1,22,1,语境：图片中的女生觉得20平方米算是大的蒙古包。她在比较三个蒙古包的面积大小。,img/da_comp.png,句子：“没有一个蒙古包大。”,0,necessarily,pos-t-comp-t-nothingda,downward_nothing
,,,,,,,,,,,,,,,,,,,2,nb1,female,33,2020-08-12_21h47.05.548,XpragNb,2020.1.2,MacIntel,60,,,0,6.535,space,1.928,0,2,2,14,1,语境：图片中的女生觉得155cm算是高的男孩。她在比较三个男孩的身高。,img/gao_comp.png,句子：“没有一个男孩高。”,0,necessarily,pos-t-comp-t-nothinggao,downward_nothing
,,,,,,,,,,,,,,,,,,,2,nb1,female,33,2020-08-12_21h47.05.548,XpragNb,2020.1.2,MacIntel,60,,,1,12.512,space,7.912,0,3,3,31,1,语境：图片中的女生在比较三辆车的时速。她觉得时速200算是快的车速。,img/kuai_eq.png,句子：“没有一辆车快。”,1,necessarily,pos-f-comp-f-nothingkuai,downward_nothing
,,,,,,,,,,,,,,,,,,,2,nb1,female,33,2020-08-12_21h47.05.548,XpragNb,2020.1.2,MacIntel,60,,,1,6.324,space,1.725,0,4,4,24,1,语境：图片中的女生觉得时速80km算是快的车。她坐在副驾驶。,img/kuai_pos.png,句子：“我们的这辆车快。”,1,possibly,pos-t-comp-f-kuai,upward
,,,,,,,,,,,,,,,,,,,2,nb1,female,33,2020-08-12_21h47.05.548,XpragNb,2020.1.2,MacIntel,60,,,0,8.378,space,3.81,0,5,5,27,1,语境：图片中的女生在比较三辆车的时速。她觉得时速200算是快的车速。,img/kuai_pos.png,句子：“我们的这辆车快。”,0,necessarily,pos-f-comp-f-kuai,upward
,,,,,,,,,,,,,,,,,,,2,nb1,female,33,2020-08-12_21h47.05.548,XpragNb,2020.1.2,MacIntel,60,,,1,10.789,space,6.319,0,6,6,10,1,语境：图片中的女生觉得155cm算是高的男孩。她在比较三个男孩的身高。,img/gao_comp.png,句子：“小明高。”,1,necessarily,pos-t-comp-t-gao,upward
,,,,,,,,,,,,,,,,,,,2,nb1,female,33,2020-08-12_21h47.05.548,XpragNb,2020.1.2,MacIntel,60,,,1,6.91,space,2.282,0,7,7,9,1,语境：图片中的女生在比较三个男生的身高。她觉得190cm算是高的男生。,img/gao_comp.png,句子：“这三个男生里，小明高。”,1,possibly,pos-f-comp-t-gao,upward
,,,,,,,,,,,,,,,,,,,2,nb1,female,33,2020-08-12_21h47.05.548,XpragNb,2020.1.2,MacIntel,60,,,0,10.529,space,5.901,0,8,8,25,1,语境：图片中的女生在比较三辆车的时速。她觉得时速160算是快的车速。,img/kuai_comp.png,句子：“这三辆车里，我们的这辆车快。”,1,possibly,pos-f-comp-t-kuai,upward
,,,,,,,,,,,,,,,,,,,2,nb1,female,33,2020-08-12_21h47.05.548,XpragNb,2020.1.2,MacIntel,60,,,0,10.882,space,6.303,0,9,9,28,1,语境：图片中的女生觉得时速80km算是快的车。她坐在副驾驶。,img/kuai_eq.png,句子：“没有一辆车快。”,1,possibly,pos-t-comp-f-nothingkuai,downward_nothing
,,,,,,,,,,,,,,,,,,,2,nb1,female,33,2020-08-12_21h47.05.548,XpragNb,2020.1.2,MacIntel,60,,,1,7.486,space,2.893,0,10,10,5,1,语境：图片中的女生在比较三辆车的价格。她觉得50万算是贵的车。,img/gui_comp.png,句子：“这三辆车里，没有一辆车贵。”,1,possibly,pos-f-comp-t-nothinggui,downward_nothing
,,,,,,,,,,,,,,,,,,,2,nb1,female,33,2020-08-12_21h47.05.548,XpragNb,2020.1.2,MacIntel,60,,,0,3.891,space,2.086,0,11,11,4,1,语境：图片中的女生觉得7万算是贵的车。她想买车。,img/gui_eq.png,句子：“没有一辆车贵。”,1,possibly,pos-t-comp-f-nothinggui,downward_nothing
,,,,,,,,,,,,,,,,,,,2,nb1,female,33,2020-08-12_21h47.05.548,XpragNb,2020.1.2,MacIntel,60,,,0,7.878,space,3.22,0,12,12,19,1,语境：图片中的女生在比较三个蒙古包的面积大小。她觉得90平方米算是大的蒙古包。,img/da_pos.png,句子：“B蒙古包大。”,0,necessarily,pos-f-comp-f-da,upward
,,,,,,,,,,,,,,,,,,,2,nb1,female,33,2020-08-12_21h47.05.548,XpragNb,2020.1.2,MacIntel,60,,,1,6.61,space,2.009,0,13,13,23,1,语境：图片中的女生在比较三个蒙古包的面积大小。她觉得90平方米算是大的蒙古包。,img/da_eq.png,句子：“没有一个蒙古包大。”,1,necessarily,pos-f-comp-f-nothingda,downward_nothing
,,,,,,,,,,,,,,,,,,,2,nb1,female,33,2020-08-12_21h47.05.548,XpragNb,2020.1.2,MacIntel,60,,,0,7.355,space,2.716,0,14,14,3,1,语境：图片中的女生在比较三辆车的价格。她觉得40万算是贵的车。,img/gui_pos.png,句子：“红车贵。”,0,necessarily,pos-f-comp-f-gui,upward
,,,,,,,,,,,,,,,,,,,2,nb1,female,33,2020-08-12_21h47.05.548,XpragNb,2020.1.2,MacIntel,60,,,0,9.653,space,5.017,0,15,15,16,1,语境：图片中的女生觉得20平方米算是大的蒙古包。她想租蒙古包。,img/da_pos.png,句子：“B蒙古包大。”,1,possibly,pos-t-comp-f-da,upward
,,,,,,,,,,,,,,,,,,,2,nb1,female,33,2020-08-12_21h47.05.548,XpragNb,2020.1.2,MacIntel,60,,,1,8.089,space,3.452,0,16,16,21,1,语境：图片中的女生在比较三个蒙古包的面积大小。她觉得100平方米算是大的蒙古包。,img/da_comp.png,句子：“这三个蒙古包里，没有一个蒙古包大。”,1,possibly,pos-f-comp-t-nothingda,downward_nothing
,,,,,,,,,,,,,,,,,,,2,nb1,female,33,2020-08-12_21h47.05.548,XpragNb,2020.1.2,MacIntel,60,,,0,6.574,space,2.033,0,17,17,6,1,语境：图片中的女生觉得2万算是贵的车。她在比较三辆车的价格。,img/gui_comp.png,句子：“没有一辆车贵。”,0,necessarily,pos-t-comp-t-nothinggui,downward_nothing
,,,,,,,,,,,,,,,,,,,2,nb1,female,33,2020-08-12_21h47.05.548,XpragNb,2020.1.2,MacIntel,60,,,1,6.066,space,1.488,0,18,18,0,1,语境：图片中的女生觉得7万算是贵的车。她想买车。,img/gui_pos.png,句子：“红车贵。”,1,possibly,pos-t-comp-f-gui,upward
,,,,,,,,,,,,,,,,,,,2,nb1,female,33,2020-08-12_21h47.05.548,XpragNb,2020.1.2,MacIntel,60,,,1,3.235,space,0.892,0,19,19,7,1,语境：图片中的女生在比较三辆车的价格。她觉得40万算是贵的车。,img/gui_eq.png,句子：“没有一辆车贵。”,1,necessarily,pos-f-comp-f-nothinggui,downward_nothing
,,,,,,,,,,,,,,,,,,,2,nb1,female,33,2020-08-12_21h47.05.548,XpragNb,2020.1.2,MacIntel,60,,,1,6.892,space,4.374,0,20,20,26,1,语境：图片中的女生觉得时速70算是快的车速。她在比较三辆车的车速。,img/kuai_comp.png,句子：“我们的这辆车快。”,1,necessarily,pos-t-comp-t-kuai,upward
,,,,,,,,,,,,,,,,,,,2,nb1,female,33,2020-08-12_21h47.05.548,XpragNb,2020.1.2,MacIntel,60,,,0,9.075,space,4.424,0,21,21,11,1,语境：图片中的女生在比较三个男生的身高。她觉得195cm算是高的男生。,img/gao_pos.png,句子：“小明高。”,0,necessarily,pos-f-comp-f-gao,upward
,,,,,,,,,,,,,,,,,,,2,nb1,female,33,2020-08-12_21h47.05.548,XpragNb,2020.1.2,MacIntel,60,,,0,12.36,space,7.823,0,22,22,12,1,语境：图片中的女生觉得170cm算是高的男生。她在和男生聊天。,img/gao_eq.png,句子：“没有一个男生高。”,1,possibly,pos-t-comp-f-nothinggao,downward_nothing
,,,,,,,,,,,,,,,,,,,2,nb1,female,33,2020-08-12_21h47.05.548,XpragNb,2020.1.2,MacIntel,60,,,1,5.903,space,1.292,0,23,23,1,1,语境：图片中的女生在比较三辆车的价格。她觉得50万算是贵的车。,img/gui_comp.png,句子：“这三辆车里，红车贵。”,1,possibly,pos-f-comp-t-gui,upward
,,,,,,,,,,,,,,,,,,,2,nb1,female,33,2020-08-12_21h47.05.548,XpragNb,2020.1.2,MacIntel,60,,,1,4.643,space,0.081,0,24,24,18,1,语境：图片中的女生觉得20平方米算是大的蒙古包。她在比较三个蒙古包的面积大小。,img/da_comp.png,句子：“B蒙古包大。”,1,necessarily,pos-t-comp-t-da,upward
,,,,,,,,,,,,,,,,,,,2,nb1,female,33,2020-08-12_21h47.05.548,XpragNb,2020.1.2,MacIntel,60,,,0,8.188,space,3.552,0,25,25,15,1,语境：图片中的女生在比较三个男生的身高。她觉得195cm算是高的男生。,img/gao_eq.png,句子：“没有一个男生高。”,1,necessarily,pos-f-comp-f-nothinggao,downward_nothing
,,,,,,,,,,,,,,,,,,,2,nb1,female,33,2020-08-12_21h47.05.548,XpragNb,2020.1.2,MacIntel,60,,,1,5.977,space,1.271,0,26,26,13,1,语境：图片中的女生在比较三个男生的身高。她觉得190cm算是高的男生。,img/gao_comp.png,句子：“这三个男生里，没有一个男生高。”,1,possibly,pos-f-comp-t-nothinggao,downward_nothing
,,,,,,,,,,,,,,,,,,,2,nb1,female,33,2020-08-12_21h47.05.548,XpragNb,2020.1.2,MacIntel,60,,,0,1.57,space,1.36,0,27,27,29,1,语境：图片中的女生在比较三辆车的时速。她觉得时速160算是快的车速。,img/kuai_comp.png,句子：“这三辆车里，没有一辆车快。”,1,possibly,pos-f-comp-t-nothingkuai,downward_nothing
,,,,,,,,,,,,,,,,,,,2,nb1,female,33,2020-08-12_21h47.05.548,XpragNb,2020.1.2,MacIntel,60,,,1,6.044,space,2.044,0,28,28,8,1,语境：图片中的女生觉得170cm算是高的男生。她在和男生聊天。,img/gao_pos.png,句子：“小明高。”,1,possibly,pos-t-comp-f-gao,upward
,,,,,,,,,,,,,,,,,,,2,nb1,female,33,2020-08-12_21h47.05.548,XpragNb,2020.1.2,MacIntel,60,,,0,6.535,space,1.91,0,29,29,20,1,语境：图片中的女生觉得20平方米算是大的蒙古包。她想租蒙古包。,img/da_eq.png,句子：“没有一个蒙古包大。”,1,possibly,pos-t-comp-f-nothingda,downward_nothing
,,,,,,,,,,,,,,,,,,,2,nb1,female,33,2020-08-12_21h47.05.548,XpragNb,2020.1.2,MacIntel,60,,,0,5.295,space,0.645,0,30,30,30,1,语境：图片中的女生觉得时速70算是快的车速。她在比较三辆车的车速。,img/kuai_comp.png,句子：“没有一辆车快。”,0,necessarily,pos-t-comp-t-nothingkuai,downward_nothing
,,,,,,,,,,,,,,,,,,,2,nb1,female,33,2020-08-12_21h47.05.548,XpragNb,2020.1.2,MacIntel,60,,,1,7.156,space,2.475,0,31,31,2,1,语境：图片中的女生觉得2万算是贵的车。她在比较三辆车的价格。,img/gui_comp.png,句子：“红车贵。”,1,necessarily,pos-t-comp-t-gui,upward
1,35.250135,space,35.275285,1,34.31664,space,37.90869,0,0,0,0,1,语境：男生让女生选择吃什么。除了门口的黑板，手机上也可以查到菜单。,trainingImg/amb1.png,句子：“男生正在等待女生， 手里握着一个手机。”,“手里握着手机”的可指“男生”，也可指“女生”。图片中确实有握着手机的女生。句子可以真实描述图片。,1,possibly,2,nb2,female,25,2020-08-12_22h56.15.315,XpragNb,2020.1.2,Win32,60,,,,,,,,,,,,,,,,,,
,,,,1,5.22896,space,1.882495,0,1,1,1,1,语境：男生让女生选择吃什么。除了门口的黑板，手机上也可以查到菜单。,trainingImg/amb2.png,句子：“男生正在等待女生， 手里握着一个手机。”,“手里握着手机”的可指“男生”，也可指“女生”。图片中确实有握着手机的男生。句子可以真实描述图片。,1,possibly,2,nb2,female,25,2020-08-12_22h56.15.315,XpragNb,2020.1.2,Win32,60,,,,,,,,,,,,,,,,,,
,,,,0,6.60339,space,5.60819,0,2,2,2,1,语境：女生躺在病床上睡着了。一会需要清洁纸巾。,trainingImg/noamb1v2.png,句子：“男生正在等待女生， 手里握着一个手机。”,“手里握着手机”的可指“男生”，也可指“女生”。图片中并没有握着手机的男生/女生。句子不可以真实描述图片。,0,necessarily,2,nb2,female,25,2020-08-12_22h56.15.315,XpragNb,2020.1.2,Win32,60,,,,,,,,,,,,,,,,,,
,,,,1,5.450435,space,1.08419,0,3,3,3,1,语境：女生躺在病床上睡着了。一会需要清洁纸巾。,trainingImg/noamb1v2.png,句子：“男生正在等待女生， 手里握着一张清洁纸巾。”,“手里握着清洁纸巾”的可指“男生”，也可指“女生”。图片中确实有握纸巾的男生。句子可以真实描述图片。,1,necessarily,2,nb2,female,25,2020-08-12_22h56.15.315,XpragNb,2020.1.2,Win32,60,,,,,,,,,,,,,,,,,,
,,,,,,,,,,,,,,,,,,,2,nb2,female,25,2020-08-12_22h56.15.315,XpragNb,2020.1.2,Win32,60,space,1.13631,1,12.722345,space,8.830915,0,0,0,21,1,语境：图片中的女生在比较三个蒙古包的面积大小。她觉得100平方米算是大的蒙古包。,img/da_comp.png,句子：“这三个蒙古包里，没有一个蒙古包大。”,1,possibly,pos-f-comp-t-nothingda,downward_nothing
,,,,,,,,,,,,,,,,,,,2,nb2,female,25,2020-08-12_22h56.15.315,XpragNb,2020.1.2,Win32,60,,,0,10.43198,space,6.01428,0,1,1,1,1,语境：图片中的女生在比较三辆车的价格。她觉得50万算是贵的车。,img/gui_comp.png,句子：“这三辆车里，红车贵。”,1,possibly,pos-f-comp-t-gui,upward
,,,,,,,,,,,,,,,,,,,2,nb2,female,25,2020-08-12_22h56.15.315,XpragNb,2020.1.2,Win32,60,,,1,10.17565,space,7.646575,0,2,2,25,1,语境：图片中的女生在比较三辆车的时速。她觉得时速160算是快的车速。,img/kuai_comp.png,句子：“这三辆车里，我们的这辆车快。”,1,possibly,pos-f-comp-t-kuai,upward
,,,,,,,,,,,,,,,,,,,2,nb2,female,25,2020-08-12_22h56.15.315,XpragNb,2020.1.2,Win32,60,,,0,4.57086,space,0.525795,0,3,3,14,1,语境：图片中的女生觉得155cm算是高的男孩。她在比较三个男孩的身高。,img/gao_comp.png,句子：“没有一个男孩高。”,0,necessarily,pos-t-comp-t-nothinggao,downward_nothing
,,,,,,,,,,,,,,,,,,,2,nb2,female,25,2020-08-12_22h56.15.315,XpragNb,2020.1.2,Win32,60,,,1,3.007705,space,5.58185,0,4,4,5,1,语境：图片中的女生在比较三辆车的价格。她觉得50万算是贵的车。,img/gui_comp.png,句子：“这三辆车里，没有一辆车贵。”,1,possibly,pos-f-comp-t-nothinggui,downward_nothing
,,,,,,,,,,,,,,,,,,,2,nb2,female,25,2020-08-12_22h56.15.315,XpragNb,2020.1.2,Win32,60,,,0,5.306395,space,3.53697,0,5,5,28,1,语境：图片中的女生觉得时速80km算是快的车。她坐在副驾驶。,img/kuai_eq.png,句子：“没有一辆车快。”,1,possibly,pos-t-comp-f-nothingkuai,downward_nothing
,,,,,,,,,,,,,,,,,,,2,nb2,female,25,2020-08-12_22h56.15.315,XpragNb,2020.1.2,Win32,60,,,0,4.83499,space,1.4712,0,6,6,3,1,语境：图片中的女生在比较三辆车的价格。她觉得40万算是贵的车。,img/gui_pos.png,句子：“红车贵。”,0,necessarily,pos-f-comp-f-gui,upward
,,,,,,,,,,,,,,,,,,,2,nb2,female,25,2020-08-12_22h56.15.315,XpragNb,2020.1.2,Win32,60,,,0,5.467955,space,4.34011,0,7,7,0,1,语境：图片中的女生觉得7万算是贵的车。她想买车。,img/gui_pos.png,句子：“红车贵。”,1,possibly,pos-t-comp-f-gui,upward
,,,,,,,,,,,,,,,,,,,2,nb2,female,25,2020-08-12_22h56.15.315,XpragNb,2020.1.2,Win32,60,,,0,3.259305,space,0.98486,0,8,8,22,1,语境：图片中的女生觉得20平方米算是大的蒙古包。她在比较三个蒙古包的面积大小。,img/da_comp.png,句子：“没有一个蒙古包大。”,0,necessarily,pos-t-comp-t-nothingda,downward_nothing
,,,,,,,,,,,,,,,,,,,2,nb2,female,25,2020-08-12_22h56.15.315,XpragNb,2020.1.2,Win32,60,,,1,4.43884,space,0.77107,0,9,9,15,1,语境：图片中的女生在比较三个男生的身高。她觉得195cm算是高的男生。,img/gao_eq.png,句子：“没有一个男生高。”,1,necessarily,pos-f-comp-f-nothinggao,downward_nothing
,,,,,,,,,,,,,,,,,,,2,nb2,female,25,2020-08-12_22h56.15.315,XpragNb,2020.1.2,Win32,60,,,1,3.586325,space,0.157355,0,10,10,26,1,语境：图片中的女生觉得时速70算是快的车速。她在比较三辆车的车速。,img/kuai_comp.png,句子：“我们的这辆车快。”,1,necessarily,pos-t-comp-t-kuai,upward
,,,,,,,,,,,,,,,,,,,2,nb2,female,25,2020-08-12_22h56.15.315,XpragNb,2020.1.2,Win32,60,,,0,2.66055,space,0.96096,0,11,11,6,1,语境：图片中的女生觉得2万算是贵的车。她在比较三辆车的价格。,img/gui_comp.png,句子：“没有一辆车贵。”,0,necessarily,pos-t-comp-t-nothinggui,downward_nothing
,,,,,,,,,,,,,,,,,,,2,nb2,female,25,2020-08-12_22h56.15.315,XpragNb,2020.1.2,Win32,60,,,1,3.8731,space,1.121725,0,12,12,10,1,语境：图片中的女生觉得155cm算是高的男孩。她在比较三个男孩的身高。,img/gao_comp.png,句子：“小明高。”,1,necessarily,pos-t-comp-t-gao,upward
,,,,,,,,,,,,,,,,,,,2,nb2,female,25,2020-08-12_22h56.15.315,XpragNb,2020.1.2,Win32,60,,,1,4.35057,space,0.22166,0,13,13,18,1,语境：图片中的女生觉得20平方米算是大的蒙古包。她在比较三个蒙古包的面积大小。,img/da_comp.png,句子：“B蒙古包大。”,1,necessarily,pos-t-comp-t-da,upward
,,,,,,,,,,,,,,,,,,,2,nb2,female,25,2020-08-12_22h56.15.315,XpragNb,2020.1.2,Win32,60,,,1,3.81863,space,2.777135,0,14,14,31,1,语境：图片中的女生在比较三辆车的时速。她觉得时速200算是快的车速。,img/kuai_eq.png,句子：“没有一辆车快。”,1,necessarily,pos-f-comp-f-nothingkuai,downward_nothing
,,,,,,,,,,,,,,,,,,,2,nb2,female,25,2020-08-12_22h56.15.315,XpragNb,2020.1.2,Win32,60,,,1,5.888475,space,4.566055,0,15,15,23,1,语境：图片中的女生在比较三个蒙古包的面积大小。她觉得90平方米算是大的蒙古包。,img/da_eq.png,句子：“没有一个蒙古包大。”,1,necessarily,pos-f-comp-f-nothingda,downward_nothing
,,,,,,,,,,,,,,,,,,,2,nb2,female,25,2020-08-12_22h56.15.315,XpragNb,2020.1.2,Win32,60,,,1,2.589235,space,3.82703,0,16,16,7,1,语境：图片中的女生在比较三辆车的价格。她觉得40万算是贵的车。,img/gui_eq.png,句子：“没有一辆车贵。”,1,necessarily,pos-f-comp-f-nothinggui,downward_nothing
,,,,,,,,,,,,,,,,,,,2,nb2,female,25,2020-08-12_22h56.15.315,XpragNb,2020.1.2,Win32,60,,,1,2.89488,space,0.82685,0,17,17,13,1,语境：图片中的女生在比较三个男生的身高。她觉得190cm算是高的男生。,img/gao_comp.png,句子：“这三个男生里，没有一个男生高。”,1,possibly,pos-f-comp-t-nothinggao,downward_nothing
,,,,,,,,,,,,,,,,,,,2,nb2,female,25,2020-08-12_22h56.15.315,XpragNb,2020.1.2,Win32,60,,,0,3.868645,space,2.12671,0,18,18,30,1,语境：图片中的女生觉得时速70算是快的车速。她在比较三辆车的车速。,img/kuai_comp.png,句子：“没有一辆车快。”,0,necessarily,pos-t-comp-t-nothingkuai,downward_nothing
,,,,,,,,,,,,,,,,,,,2,nb2,female,25,2020-08-12_22h56.15.315,XpragNb,2020.1.2,Win32,60,,,1,3.36823,space,2.935055,0,19,19,17,1,语境：图片中的女生在比较三个蒙古包的面积大小。她觉得100平方米算是大的蒙古包。,img/da_comp.png,句子：“这三个蒙古包里，B蒙古包大。”,1,possibly,pos-f-comp-t-da,upward
,,,,,,,,,,,,,,,,,,,2,nb2,female,25,2020-08-12_22h56.15.315,XpragNb,2020.1.2,Win32,60,,,1,3.84172,space,0.65633,0,20,20,29,1,语境：图片中的女生在比较三辆车的时速。她觉得时速160算是快的车速。,img/kuai_comp.png,句子：“这三辆车里，没有一辆车快。”,1,possibly,pos-f-comp-t-nothingkuai,downward_nothing
,,,,,,,,,,,,,,,,,,,2,nb2,female,25,2020-08-12_22h56.15.315,XpragNb,2020.1.2,Win32,60,,,0,4.58642,space,1.05164,0,21,21,20,1,语境：图片中的女生觉得20平方米算是大的蒙古包。她想租蒙古包。,img/da_eq.png,句子：“没有一个蒙古包大。”,1,possibly,pos-t-comp-f-nothingda,downward_nothing
,,,,,,,,,,,,,,,,,,,2,nb2,female,25,2020-08-12_22h56.15.315,XpragNb,2020.1.2,Win32,60,,,0,4.303935,space,1.169515,0,22,22,4,1,语境：图片中的女生觉得7万算是贵的车。她想买车。,img/gui_eq.png,句子：“没有一辆车贵。”,1,possibly,pos-t-comp-f-nothinggui,downward_nothing
,,,,,,,,,,,,,,,,,,,2,nb2,female,25,2020-08-12_22h56.15.315,XpragNb,2020.1.2,Win32,60,,,0,3.65193,space,0.828885,0,23,23,11,1,语境：图片中的女生在比较三个男生的身高。她觉得195cm算是高的男生。,img/gao_pos.png,句子：“小明高。”,0,necessarily,pos-f-comp-f-gao,upward
,,,,,,,,,,,,,,,,,,,2,nb2,female,25,2020-08-12_22h56.15.315,XpragNb,2020.1.2,Win32,60,,,0,4.13988,space,0.484125,0,24,24,27,1,语境：图片中的女生在比较三辆车的时速。她觉得时速200算是快的车速。,img/kuai_pos.png,句子：“我们的这辆车快。”,0,necessarily,pos-f-comp-f-kuai,upward
,,,,,,,,,,,,,,,,,,,2,nb2,female,25,2020-08-12_22h56.15.315,XpragNb,2020.1.2,Win32,60,,,1,6.20306,space,2.15205,0,25,25,2,1,语境：图片中的女生觉得2万算是贵的车。她在比较三辆车的价格。,img/gui_comp.png,句子：“红车贵。”,1,necessarily,pos-t-comp-t-gui,upward
,,,,,,,,,,,,,,,,,,,2,nb2,female,25,2020-08-12_22h56.15.315,XpragNb,2020.1.2,Win32,60,,,0,3.47818,space,1.300535,0,26,26,19,1,语境：图片中的女生在比较三个蒙古包的面积大小。她觉得90平方米算是大的蒙古包。,img/da_pos.png,句子：“B蒙古包大。”,0,necessarily,pos-f-comp-f-da,upward
,,,,,,,,,,,,,,,,,,,2,nb2,female,25,2020-08-12_22h56.15.315,XpragNb,2020.1.2,Win32,60,,,1,7.616185,space,5.199385,0,27,27,8,1,语境：图片中的女生觉得170cm算是高的男生。她在和男生聊天。,img/gao_pos.png,句子：“小明高。”,1,possibly,pos-t-comp-f-gao,upward
,,,,,,,,,,,,,,,,,,,2,nb2,female,25,2020-08-12_22h56.15.315,XpragNb,2020.1.2,Win32,60,,,0,11.534415,space,9.11343,0,28,28,24,1,语境：图片中的女生觉得时速80km算是快的车。她坐在副驾驶。,img/kuai_pos.png,句子：“我们的这辆车快。”,1,possibly,pos-t-comp-f-kuai,upward
,,,,,,,,,,,,,,,,,,,2,nb2,female,25,2020-08-12_22h56.15.315,XpragNb,2020.1.2,Win32,60,,,0,3.623425,space,0.558975,0,29,29,12,1,语境：图片中的女生觉得170cm算是高的男生。她在和男生聊天。,img/gao_eq.png,句子：“没有一个男生高。”,1,possibly,pos-t-comp-f-nothinggao,downward_nothing
,,,,,,,,,,,,,,,,,,,2,nb2,female,25,2020-08-12_22h56.15.315,XpragNb,2020.1.2,Win32,60,,,0,4.68944,space,0.64951,0,30,30,16,1,语境：图片中的女生觉得20平方米算是大的蒙古包。她想租蒙古包。,img/da_pos.png,句子：“B蒙古包大。”,1,possibly,pos-t-comp-f-da,upward
,,,,,,,,,,,,,,,,,,,2,nb2,female,25,2020-08-12_22h56.15.315,XpragNb,2020.1.2,Win32,60,,,1,5.43326,space,0.821225,0,31,31,9,1,语境：图片中的女生在比较三个男生的身高。她觉得190cm算是高的男生。,img/gao_comp.png,句子：“这三个男生里，小明高。”,1,possibly,pos-f-comp-t-gao,upward
1,6.82015,space,5.992865,0,39.177265,space,82.13733,0,0,0,0,1,语境：男生让女生选择吃什么。除了门口的黑板，手机上也可以查到菜单。,trainingImg/amb1.png,句子：“男生正在等待女生， 手里握着一个手机。”,“手里握着手机”的可指“男生”，也可指“女生”。图片中确实有握着手机的女生。句子可以真实描述图片。,1,possibly,2,nb3,Female,27,2020-08-13_08h56.13.253,XpragNb,2020.1.2,Win32,60,,,,,,,,,,,,,,,,,,
,,,,1,17.737775,space,9.514685,0,1,1,1,1,语境：男生让女生选择吃什么。除了门口的黑板，手机上也可以查到菜单。,trainingImg/amb2.png,句子：“男生正在等待女生， 手里握着一个手机。”,“手里握着手机”的可指“男生”，也可指“女生”。图片中确实有握着手机的男生。句子可以真实描述图片。,1,possibly,2,nb3,Female,27,2020-08-13_08h56.13.253,XpragNb,2020.1.2,Win32,60,,,,,,,,,,,,,,,,,,
,,,,0,19.681095,space,11.246695,0,2,2,2,1,语境：女生躺在病床上睡着了。一会需要清洁纸巾。,trainingImg/noamb1v2.png,句子：“男生正在等待女生， 手里握着一个手机。”,“手里握着手机”的可指“男生”，也可指“女生”。图片中并没有握着手机的男生/女生。句子不可以真实描述图片。,0,necessarily,2,nb3,Female,27,2020-08-13_08h56.13.253,XpragNb,2020.1.2,Win32,60,,,,,,,,,,,,,,,,,,
,,,,1,10.306695,space,1.831265,0,3,3,3,1,语境：女生躺在病床上睡着了。一会需要清洁纸巾。,trainingImg/noamb1v2.png,句子：“男生正在等待女生， 手里握着一张清洁纸巾。”,“手里握着清洁纸巾”的可指“男生”，也可指“女生”。图片中确实有握纸巾的男生。句子可以真实描述图片。,1,necessarily,2,nb3,Female,27,2020-08-13_08h56.13.253,XpragNb,2020.1.2,Win32,60,,,,,,,,,,,,,,,,,,
,,,,,,,,,,,,,,,,,,,2,nb3,Female,27,2020-08-13_08h56.13.253,XpragNb,2020.1.2,Win32,60,space,1.53635,1,18.29368,space,13.916285,0,0,0,21,1,语境：图片中的女生在比较三个蒙古包的面积大小。她觉得100平方米算是大的蒙古包。,img/da_comp.png,句子：“这三个蒙古包里，没有一个蒙古包大。”,1,possibly,pos-f-comp-t-nothingda,downward_nothing
,,,,,,,,,,,,,,,,,,,2,nb3,Female,27,2020-08-13_08h56.13.253,XpragNb,2020.1.2,Win32,60,,,0,6.268265,space,1.603405,0,1,1,12,1,语境：图片中的女生觉得170cm算是高的男生。她在和男生聊天。,img/gao_eq.png,句子：“没有一个男生高。”,1,possibly,pos-t-comp-f-nothinggao,downward_nothing
,,,,,,,,,,,,,,,,,,,2,nb3,Female,27,2020-08-13_08h56.13.253,XpragNb,2020.1.2,Win32,60,,,0,9.28456,space,4.59009,0,2,2,27,1,语境：图片中的女生在比较三辆车的时速。她觉得时速200算是快的车速。,img/kuai_pos.png,句子：“我们的这辆车快。”,0,necessarily,pos-f-comp-f-kuai,upward
,,,,,,,,,,,,,,,,,,,2,nb3,Female,27,2020-08-13_08h56.13.253,XpragNb,2020.1.2,Win32,60,,,1,8.894575,space,4.383075,0,3,3,29,1,语境：图片中的女生在比较三辆车的时速。她觉得时速160算是快的车速。,img/kuai_comp.png,句子：“这三辆车里，没有一辆车快。”,1,possibly,pos-f-comp-t-nothingkuai,downward_nothing
,,,,,,,,,,,,,,,,,,,2,nb3,Female,27,2020-08-13_08h56.13.253,XpragNb,2020.1.2,Win32,60,,,0,6.12245,space,1.6502,0,4,4,16,1,语境：图片中的女生觉得20平方米算是大的蒙古包。她想租蒙古包。,img/da_pos.png,句子：“B蒙古包大。”,1,possibly,pos-t-comp-f-da,upward
,,,,,,,,,,,,,,,,,,,2,nb3,Female,27,2020-08-13_08h56.13.253,XpragNb,2020.1.2,Win32,60,,,1,10.817525,space,6.322785,0,5,5,1,1,语境：图片中的女生在比较三辆车的价格。她觉得50万算是贵的车。,img/gui_comp.png,句子：“这三辆车里，红车贵。”,1,possibly,pos-f-comp-t-gui,upward
,,,,,,,,,,,,,,,,,,,2,nb3,Female,27,2020-08-13_08h56.13.253,XpragNb,2020.1.2,Win32,60,,,1,5.218275,space,0.774155,0,6,6,25,1,语境：图片中的女生在比较三辆车的时速。她觉得时速160算是快的车速。,img/kuai_comp.png,句子：“这三辆车里，我们的这辆车快。”,1,possibly,pos-f-comp-t-kuai,upward
,,,,,,,,,,,,,,,,,,,2,nb3,Female,27,2020-08-13_08h56.13.253,XpragNb,2020.1.2,Win32,60,,,0,10.80573,space,6.16531,0,7,7,14,1,语境：图片中的女生觉得155cm算是高的男孩。她在比较三个男孩的身高。,img/gao_comp.png,句子：“没有一个男孩高。”,0,necessarily,pos-t-comp-t-nothinggao,downward_nothing
,,,,,,,,,,,,,,,,,,,2,nb3,Female,27,2020-08-13_08h56.13.253,XpragNb,2020.1.2,Win32,60,,,1,44.4829,space,40.48625,0,8,8,26,1,语境：图片中的女生觉得时速70算是快的车速。她在比较三辆车的车速。,img/kuai_comp.png,句子：“我们的这辆车快。”,1,necessarily,pos-t-comp-t-kuai,upward
,,,,,,,,,,,,,,,,,,,2,nb3,Female,27,2020-08-13_08h56.13.253,XpragNb,2020.1.2,Win32,60,,,0,13.12017,space,8.606755,0,9,9,24,1,语境：图片中的女生觉得时速80km算是快的车。她坐在副驾驶。,img/kuai_pos.png,句子：“我们的这辆车快。”,1,possibly,pos-t-comp-f-kuai,upward
,,,,,,,,,,,,,,,,,,,2,nb3,Female,27,2020-08-13_08h56.13.253,XpragNb,2020.1.2,Win32,60,,,0,5.862735,space,1.48318,0,10,10,19,1,语境：图片中的女生在比较三个蒙古包的面积大小。她觉得90平方米算是大的蒙古包。,img/da_pos.png,句子：“B蒙古包大。”,0,necessarily,pos-f-comp-f-da,upward
,,,,,,,,,,,,,,,,,,,2,nb3,Female,27,2020-08-13_08h56.13.253,XpragNb,2020.1.2,Win32,60,,,1,7.607475,space,3.103445,0,11,11,23,1,语境：图片中的女生在比较三个蒙古包的面积大小。她觉得90平方米算是大的蒙古包。,img/da_eq.png,句子：“没有一个蒙古包大。”,1,necessarily,pos-f-comp-f-nothingda,downward_nothing
,,,,,,,,,,,,,,,,,,,2,nb3,Female,27,2020-08-13_08h56.13.253,XpragNb,2020.1.2,Win32,60,,,0,5.150155,space,0.550575,0,12,12,20,1,语境：图片中的女生觉得20平方米算是大的蒙古包。她想租蒙古包。,img/da_eq.png,句子：“没有一个蒙古包大。”,1,possibly,pos-t-comp-f-nothingda,downward_nothing
,,,,,,,,,,,,,,,,,,,2,nb3,Female,27,2020-08-13_08h56.13.253,XpragNb,2020.1.2,Win32,60,,,0,7.091945,space,2.436345,0,13,13,6,1,语境：图片中的女生觉得2万算是贵的车。她在比较三辆车的价格。,img/gui_comp.png,句子：“没有一辆车贵。”,0,necessarily,pos-t-comp-t-nothinggui,downward_nothing
,,,,,,,,,,,,,,,,,,,2,nb3,Female,27,2020-08-13_08h56.13.253,XpragNb,2020.1.2,Win32,60,,,1,9.88496,space,5.947345,0,14,14,0,1,语境：图片中的女生觉得7万算是贵的车。她想买车。,img/gui_pos.png,句子：“红车贵。”,1,possibly,pos-t-comp-f-gui,upward
,,,,,,,,,,,,,,,,,,,2,nb3,Female,27,2020-08-13_08h56.13.253,XpragNb,2020.1.2,Win32,60,,,1,12.701805,space,8.26464,0,15,15,7,1,语境：图片中的女生在比较三辆车的价格。她觉得40万算是贵的车。,img/gui_eq.png,句子：“没有一辆车贵。”,1,necessarily,pos-f-comp-f-nothinggui,downward_nothing
,,,,,,,,,,,,,,,,,,,2,nb3,Female,27,2020-08-13_08h56.13.253,XpragNb,2020.1.2,Win32,60,,,1,25.912915,space,21.42828,0,16,16,31,1,语境：图片中的女生在比较三辆车的时速。她觉得时速200算是快的车速。,img/kuai_eq.png,句子：“没有一辆车快。”,1,necessarily,pos-f-comp-f-nothingkuai,downward_nothing
,,,,,,,,,,,,,,,,,,,2,nb3,Female,27,2020-08-13_08h56.13.253,XpragNb,2020.1.2,Win32,60,,,1,4.6938,space,1.50411,0,17,17,18,1,语境：图片中的女生觉得20平方米算是大的蒙古包。她在比较三个蒙古包的面积大小。,img/da_comp.png,句子：“B蒙古包大。”,1,necessarily,pos-t-comp-t-da,upward
,,,,,,,,,,,,,,,,,,,2,nb3,Female,27,2020-08-13_08h56.13.253,XpragNb,2020.1.2,Win32,60,,,0,11.01731,space,6.80099,0,18,18,8,1,语境：图片中的女生觉得170cm算是高的男生。她在和男生聊天。,img/gao_pos.png,句子：“小明高。”,1,possibly,pos-t-comp-f-gao,upward
,,,,,,,,,,,,,,,,,,,2,nb3,Female,27,2020-08-13_08h56.13.253,XpragNb,2020.1.2,Win32,60,,,1,4.69003,space,0.47093,0,19,19,9,1,语境：图片中的女生在比较三个男生的身高。她觉得190cm算是高的男生。,img/gao_comp.png,句子：“这三个男生里，小明高。”,1,possibly,pos-f-comp-t-gao,upward
,,,,,,,,,,,,,,,,,,,2,nb3,Female,27,2020-08-13_08h56.13.253,XpragNb,2020.1.2,Win32,60,,,1,4.688965,space,2.616905,0,20,20,5,1,语境：图片中的女生在比较三辆车的价格。她觉得50万算是贵的车。,img/gui_comp.png,句子：“这三辆车里，没有一辆车贵。”,1,possibly,pos-f-comp-t-nothinggui,downward_nothing
,,,,,,,,,,,,,,,,,,,2,nb3,Female,27,2020-08-13_08h56.13.253,XpragNb,2020.1.2,Win32,60,,,1,4.558755,space,1.350645,0,21,21,15,1,语境：图片中的女生在比较三个男生的身高。她觉得195cm算是高的男生。,img/gao_eq.png,句子：“没有一个男生高。”,1,necessarily,pos-f-comp-f-nothinggao,downward_nothing
,,,,,,,,,,,,,,,,,,,2,nb3,Female,27,2020-08-13_08h56.13.253,XpragNb,2020.1.2,Win32,60,,,0,8.73924,space,4.50328,0,22,22,3,1,语境：图片中的女生在比较三辆车的价格。她觉得40万算是贵的车。,img/gui_pos.png,句子：“红车贵。”,0,necessarily,pos-f-comp-f-gui,upward
,,,,,,,,,,,,,,,,,,,2,nb3,Female,27,2020-08-13_08h56.13.253,XpragNb,2020.1.2,Win32,60,,,1,5.093705,space,0.83305,0,23,23,10,1,语境：图片中的女生觉得155cm算是高的男孩。她在比较三个男孩的身高。,img/gao_comp.png,句子：“小明高。”,1,necessarily,pos-t-comp-t-gao,upward
,,,,,,,,,,,,,,,,,,,2,nb3,Female,27,2020-08-13_08h56.13.253,XpragNb,2020.1.2,Win32,60,,,1,1.7054,space,1.15396,0,24,24,2,1,语境：图片中的女生觉得2万算是贵的车。她在比较三辆车的价格。,img/gui_comp.png,句子：“红车贵。”,1,necessarily,pos-t-comp-t-gui,upward
,,,,,,,,,,,,,,,,,,,2,nb3,Female,27,2020-08-13_08h56.13.253,XpragNb,2020.1.2,Win32,60,,,0,5.93304,space,1.65075,0,25,25,28,1,语境：图片中的女生觉得时速80km算是快的车。她坐在副驾驶。,img/kuai_eq.png,句子：“没有一辆车快。”,1,possibly,pos-t-comp-f-nothingkuai,downward_nothing
,,,,,,,,,,,,,,,,,,,2,nb3,Female,27,2020-08-13_08h56.13.253,XpragNb,2020.1.2,Win32,60,,,1,9.969155,space,5.668845,0,26,26,13,1,语境：图片中的女生在比较三个男生的身高。她觉得190cm算是高的男生。,img/gao_comp.png,句子：“这三个男生里，没有一个男生高。”,1,possibly,pos-f-comp-t-nothinggao,downward_nothing
,,,,,,,,,,,,,,,,,,,2,nb3,Female,27,2020-08-13_08h56.13.253,XpragNb,2020.1.2,Win32,60,,,0,6.33887,space,1.98254,0,27,27,4,1,语境：图片中的女生觉得7万算是贵的车。她想买车。,img/gui_eq.png,句子：“没有一辆车贵。”,1,possibly,pos-t-comp-f-nothinggui,downward_nothing
,,,,,,,,,,,,,,,,,,,2,nb3,Female,27,2020-08-13_08h56.13.253,XpragNb,2020.1.2,Win32,60,,,0,6.275495,space,1.91635,0,28,28,11,1,语境：图片中的女生在比较三个男生的身高。她觉得195cm算是高的男生。,img/gao_pos.png,句子：“小明高。”,0,necessarily,pos-f-comp-f-gao,upward
,,,,,,,,,,,,,,,,,,,2,nb3,Female,27,2020-08-13_08h56.13.253,XpragNb,2020.1.2,Win32,60,,,0,4.892995,space,0.492265,0,29,29,30,1,语境：图片中的女生觉得时速70算是快的车速。她在比较三辆车的车速。,img/kuai_comp.png,句子：“没有一辆车快。”,0,necessarily,pos-t-comp-t-nothingkuai,downward_nothing
,,,,,,,,,,,,,,,,,,,2,nb3,Female,27,2020-08-13_08h56.13.253,XpragNb,2020.1.2,Win32,60,,,1,3.754105,space,0.90539,0,30,30,17,1,语境：图片中的女生在比较三个蒙古包的面积大小。她觉得100平方米算是大的蒙古包。,img/da_comp.png,句子：“这三个蒙古包里，B蒙古包大。”,1,possibly,pos-f-comp-t-da,upward
,,,,,,,,,,,,,,,,,,,2,nb3,Female,27,2020-08-13_08h56.13.253,XpragNb,2020.1.2,Win32,60,,,0,6.037775,space,1.766855,0,31,31,22,1,语境：图片中的女生觉得20平方米算是大的蒙古包。她在比较三个蒙古包的面积大小。,img/da_comp.png,句子：“没有一个蒙古包大。”,0,necessarily,pos-t-comp-t-nothingda,downward_nothing
1,26.06516,space,24.885375,1,56.91715,space,50.24436,0,0,0,0,1,语境：男生让女生选择吃什么。除了门口的黑板，手机上也可以查到菜单。,trainingImg/amb1.png,句子：“男生正在等待女生， 手里握着一个手机。”,“手里握着手机”的可指“男生”，也可指“女生”。图片中确实有握着手机的女生。句子可以真实描述图片。,1,possibly,3,only0,female,20,2020-08-12_22h32.11.528,XpragOnly,2020.1.2,Win32,60,,,,,,,,,,,,,,,,,,
,,,,1,7.275695,space,1.36789,0,1,1,1,1,语境：男生让女生选择吃什么。除了门口的黑板，手机上也可以查到菜单。,trainingImg/amb2.png,句子：“男生正在等待女生， 手里握着一个手机。”,“手里握着手机”的可指“男生”，也可指“女生”。图片中确实有握着手机的男生。句子可以真实描述图片。,1,possibly,3,only0,female,20,2020-08-12_22h32.11.528,XpragOnly,2020.1.2,Win32,60,,,,,,,,,,,,,,,,,,
,,,,0,13.827095,space,19.250385,0,2,2,2,1,语境：女生躺在病床上睡着了。一会需要清洁纸巾。,trainingImg/noamb1v2.png,句子：“男生正在等待女生， 手里握着一个手机。”,“手里握着手机”的可指“男生”，也可指“女生”。图片中并没有握着手机的男生/女生。句子不可以真实描述图片。,0,necessarily,3,only0,female,20,2020-08-12_22h32.11.528,XpragOnly,2020.1.2,Win32,60,,,,,,,,,,,,,,,,,,
,,,,1,9.75973,space,3.73476,0,3,3,3,1,语境：女生躺在病床上睡着了。一会需要清洁纸巾。,trainingImg/noamb1v2.png,句子：“男生正在等待女生， 手里握着一张清洁纸巾。”,“手里握着清洁纸巾”的可指“男生”，也可指“女生”。图片中确实有握纸巾的男生。句子可以真实描述图片。,1,necessarily,3,only0,female,20,2020-08-12_22h32.11.528,XpragOnly,2020.1.2,Win32,60,,,,,,,,,,,,,,,,,,
,,,,,,,,,,,,,,,,,,,3,only0,female,20,2020-08-12_22h32.11.528,XpragOnly,2020.1.2,Win32,60,space,1.858855,0,8.76442,space,13.69011,0,0,0,11,1,语境：图片中的女生在比较三个男生的身高。她觉得195cm算是高的男生。,img/gao_pos.png,句子：“小明高。”,0,necessarily,pos-f-comp-f-gao,upward
,,,,,,,,,,,,,,,,,,,3,only0,female,20,2020-08-12_22h32.11.528,XpragOnly,2020.1.2,Win32,60,,,0,9.464895,space,7.551085,0,1,1,28,1,语境：图片中的女生觉得时速90km算是快的车。她坐在副驾驶。,img/kuai_pos.png,句子：“只有我们的这辆车快。”,0,necessarily,pos-t-comp-f-onlykuai,downward_only
,,,,,,,,,,,,,,,,,,,3,only0,female,20,2020-08-12_22h32.11.528,XpragOnly,2020.1.2,Win32,60,,,1,7.52912,space,7.186125,0,2,2,0,1,语境：图片中的女生觉得7万算是贵的车。她想买车。,img/gui_pos.png,句子：“红车贵。”,1,possibly,pos-t-comp-f-gui,upward
,,,,,,,,,,,,,,,,,,,3,only0,female,20,2020-08-12_22h32.11.528,XpragOnly,2020.1.2,Win32,60,,,0,4.84216,space,1.8667,0,3,3,15,1,语境：图片中的女生在比较三个男生的身高。她觉得195cm算是高的男生。,img/gao_pos.png,句子：“只有小明高。”,0,necessarily,pos-f-comp-f-onlygao,downward_only
,,,,,,,,,,,,,,,,,,,3,only0,female,20,2020-08-12_22h32.11.528,XpragOnly,2020.1.2,Win32,60,,,1,14.86145,space,12.122385,0,4,4,22,1,语境：图片中的女生觉得50平方米算是大的蒙古包。她在比较三个蒙古包的面积大小。,img/da_comp.png,句子：“只有B蒙古包大。”,1,necessarily,pos-t-comp-t-onlyda,downward_only
,,,,,,,,,,,,,,,,,,,3,only0,female,20,2020-08-12_22h32.11.528,XpragOnly,2020.1.2,Win32,60,,,1,16.974745,space,17.29822,0,5,5,18,1,语境：图片中的女生觉得20平方米算是大的蒙古包。她在比较三个蒙古包的面积大小。,img/da_comp.png,句子：“B蒙古包大。”,1,necessarily,pos-t-comp-t-da,upward
,,,,,,,,,,,,,,,,,,,3,only0,female,20,2020-08-12_22h32.11.528,XpragOnly,2020.1.2,Win32,60,,,0,10.31025,space,10.20182,0,6,6,25,1,语境：图片中的女生在比较三辆车的时速。她觉得时速160算是快的车速。,img/kuai_comp.png,句子：“这三辆车里，我们的这辆车快。”,1,possibly,pos-f-comp-t-kuai,upward
,,,,,,,,,,,,,,,,,,,3,only0,female,20,2020-08-12_22h32.11.528,XpragOnly,2020.1.2,Win32,60,,,0,5.2422,space,1.150405,0,7,7,19,1,语境：图片中的女生在比较三个蒙古包的面积大小。她觉得90平方米算是大的蒙古包。,img/da_pos.png,句子：“B蒙古包大。”,0,necessarily,pos-f-comp-f-da,upward
,,,,,,,,,,,,,,,,,,,3,only0,female,20,2020-08-12_22h32.11.528,XpragOnly,2020.1.2,Win32,60,,,0,9.011795,space,5.41927,0,8,8,29,1,语境：图片中的女生在比较三辆车的时速。她觉得时速160算是快的车速。,img/kuai_comp.png,句子：“这三辆车里，只有我们的这辆车快。”,1,possibly,pos-f-comp-t-onlykuai,downward_only
,,,,,,,,,,,,,,,,,,,3,only0,female,20,2020-08-12_22h32.11.528,XpragOnly,2020.1.2,Win32,60,,,0,4.81123,space,4.00059,0,9,9,31,1,语境：图片中的女生在比较三辆车的时速。她觉得时速200算是快的车速。,img/kuai_pos.png,句子：“只有我们的这辆车快。”,0,necessarily,pos-f-comp-f-onlykuai,downward_only
,,,,,,,,,,,,,,,,,,,3,only0,female,20,2020-08-12_22h32.11.528,XpragOnly,2020.1.2,Win32,60,,,0,6.34338,space,3.3839,0,10,10,13,1,语境：图片中的女生在比较三个男生的身高。她觉得190cm算是高的男生。,img/gao_comp.png,句子：“这三个男生里，只有小明高。”,1,possibly,pos-f-comp-t-onlygao,downward_only
,,,,,,,,,,,,,,,,,,,3,only0,female,20,2020-08-12_22h32.11.528,XpragOnly,2020.1.2,Win32,60,,,1,10.49658,space,16.000535,0,11,11,30,1,语境：图片中的女生觉得时速110算是快的车速。她在比较三辆车的车速。,img/kuai_comp.png,句子：“只有我们的这辆车快。”,1,necessarily,pos-t-comp-t-onlykuai,downward_only
,,,,,,,,,,,,,,,,,,,3,only0,female,20,2020-08-12_22h32.11.528,XpragOnly,2020.1.2,Win32,60,,,0,9.226425,space,5.600905,0,12,12,9,1,语境：图片中的女生在比较三个男生的身高。她觉得190cm算是高的男生。,img/gao_comp.png,句子：“这三个男生里，小明高。”,1,possibly,pos-f-comp-t-gao,upward
,,,,,,,,,,,,,,,,,,,3,only0,female,20,2020-08-12_22h32.11.528,XpragOnly,2020.1.2,Win32,60,,,1,8.077215,space,4.321565,0,13,13,8,1,语境：图片中的女生觉得170cm算是高的男生。她在和男生聊天。,img/gao_pos.png,句子：“小明高。”,1,possibly,pos-t-comp-f-gao,upward
,,,,,,,,,,,,,,,,,,,3,only0,female,20,2020-08-12_22h32.11.528,XpragOnly,2020.1.2,Win32,60,,,,,space,14.382745,0,14,14,23,1,语境：图片中的女生在比较三个蒙古包的面积大小。她觉得90平方米算是大的蒙古包。,img/da_pos.png,句子：“只有B蒙古包大。”,0,necessarily,pos-f-comp-f-onlyda,downward_only
,,,,,,,,,,,,,,,,,,,3,only0,female,20,2020-08-12_22h32.11.528,XpragOnly,2020.1.2,Win32,60,,,1,15.495115,space,13.301975,0,15,15,10,1,语境：图片中的女生觉得155cm算是高的男孩。她在比较三个男孩的身高。,img/gao_comp.png,句子：“小明高。”,1,necessarily,pos-t-comp-t-gao,upward
,,,,,,,,,,,,,,,,,,,3,only0,female,20,2020-08-12_22h32.11.528,XpragOnly,2020.1.2,Win32,60,,,1,10.494345,space,6.602155,0,16,16,16,1,语境：图片中的女生觉得20平方米算是大的蒙古包。她想租蒙古包。,img/da_pos.png,句子：“B蒙古包大。”,1,possibly,pos-t-comp-f-da,upward
,,,,,,,,,,,,,,,,,,,3,only0,female,20,2020-08-12_22h32.11.528,XpragOnly,2020.1.2,Win32,60,,,0,4.626395,space,1.250895,0,17,17,20,1,语境：图片中的女生觉得20平方米算是大的蒙古包。她想租蒙古包。,img/da_pos.png,句子：“只有B蒙古包大。”,0,necessarily,pos-t-comp-f-onlyda,downward_only
,,,,,,,,,,,,,,,,,,,3,only0,female,20,2020-08-12_22h32.11.528,XpragOnly,2020.1.2,Win32,60,,,0,7.475315,space,11.036665,0,18,18,21,1,语境：图片中的女生在比较三个蒙古包的面积大小。她觉得100平方米算是大的蒙古包。,img/da_comp.png,句子：“这三个蒙古包里，只有B蒙古包大。”,1,possibly,pos-f-comp-t-onlyda,downward_only
,,,,,,,,,,,,,,,,,,,3,only0,female,20,2020-08-12_22h32.11.528,XpragOnly,2020.1.2,Win32,60,,,1,8.045825,space,9.000885,0,19,19,14,1,语境：图片中的女生觉得173cm算是高的男孩。她在比较三个男孩的身高。,img/gao_comp.png,句子：“只有小明高。”,1,necessarily,pos-t-comp-t-onlygao,downward_only
,,,,,,,,,,,,,,,,,,,3,only0,female,20,2020-08-12_22h32.11.528,XpragOnly,2020.1.2,Win32,60,,,0,13.375935,space,9.300235,0,20,20,3,1,语境：图片中的女生在比较三辆车的价格。她觉得40万算是贵的车。,img/gui_pos.png,句子：“红车贵。”,0,necessarily,pos-f-comp-f-gui,upward
,,,,,,,,,,,,,,,,,,,3,only0,female,20,2020-08-12_22h32.11.528,XpragOnly,2020.1.2,Win32,60,,,1,12.73162,space,10.08274,0,21,21,2,1,语境：图片中的女生觉得15万算是贵的车。她在比较三辆车的价格。,img/gui_comp.png,句子：“红车贵。”,1,necessarily,pos-t-comp-t-gui,upward
,,,,,,,,,,,,,,,,,,,3,only0,female,20,2020-08-12_22h32.11.528,XpragOnly,2020.1.2,Win32,60,,,0,4.19472,space,2.1184,0,22,22,12,1,语境：图片中的女生觉得170cm算是高的男生。她在和男生聊天。,img/gao_pos.png,句子：“只有小明高。”,0,necessarily,pos-t-comp-f-onlygao,downward_only
,,,,,,,,,,,,,,,,,,,3,only0,female,20,2020-08-12_22h32.11.528,XpragOnly,2020.1.2,Win32,60,,,1,7.61487,space,5.43579,0,23,23,24,1,语境：图片中的女生觉得时速90km算是快的车。她坐在副驾驶。,img/kuai_pos.png,句子：“我们的这辆车快。”,1,possibly,pos-t-comp-f-kuai,upward
,,,,,,,,,,,,,,,,,,,3,only0,female,20,2020-08-12_22h32.11.528,XpragOnly,2020.1.2,Win32,60,,,0,6.26009,space,2.587335,0,24,24,1,1,语境：图片中的女生在比较三辆车的价格。她觉得40万算是贵的车。,img/gui_comp.png,句子：“这三个车里，红车贵。”,1,possibly,pos-f-comp-t-gui,upward
,,,,,,,,,,,,,,,,,,,3,only0,female,20,2020-08-12_22h32.11.528,XpragOnly,2020.1.2,Win32,60,,,0,4.994035,space,0.73393,0,25,25,17,1,语境：图片中的女生在比较三个蒙古包的面积大小。她觉得100平方米算是大的蒙古包。,img/da_comp.png,句子：“这三个蒙古包里，B蒙古包大。”,1,possibly,pos-f-comp-t-da,upward
,,,,,,,,,,,,,,,,,,,3,only0,female,20,2020-08-12_22h32.11.528,XpragOnly,2020.1.2,Win32,60,,,1,11.41411,space,9.43444,0,26,26,26,1,语境：图片中的女生觉得时速70算是快的车速。她在比较三辆车的车速。,img/kuai_comp.png,句子：“我们的这辆车快。”,1,necessarily,pos-t-comp-t-kuai,upward
,,,,,,,,,,,,,,,,,,,3,only0,female,20,2020-08-12_22h32.11.528,XpragOnly,2020.1.2,Win32,60,,,0,6.39485,space,2.767845,0,27,27,4,1,语境：图片中的女生觉得7万算是贵的车。她想买车。,img/gui_pos.png,句子：“只有红车贵。”,0,necessarily,pos-t-comp-f-onlygui,downward_only
,,,,,,,,,,,,,,,,,,,3,only0,female,20,2020-08-12_22h32.11.528,XpragOnly,2020.1.2,Win32,60,,,0,4.77543,space,0.91675,0,28,28,5,1,语境：图片中的女生在比较三辆车的价格。她觉得50万算是贵的车。,img/gui_comp.png,句子：“这三个车里，只有红车贵。”,1,possibly,pos-f-comp-t-onlygui,downward_only
,,,,,,,,,,,,,,,,,,,3,only0,female,20,2020-08-12_22h32.11.528,XpragOnly,2020.1.2,Win32,60,,,0,3.01251,space,1.85357,0,29,29,7,1,语境：图片中的女生在比较三辆车的价格。她觉得18万算是贵的车。,img/gui_pos.png,句子：“只有红车贵。”,0,necessarily,pos-f-comp-f-onlygui,downward_only
,,,,,,,,,,,,,,,,,,,3,only0,female,20,2020-08-12_22h32.11.528,XpragOnly,2020.1.2,Win32,60,,,1,6.293565,space,6.967935,0,30,30,6,1,语境：图片中的女生觉得15万算是贵的车。她在比较三辆车的价格。,img/gui_comp.png,句子：“只有红车贵。”,1,necessarily,pos-t-comp-t-onlygui,downward_only
,,,,,,,,,,,,,,,,,,,3,only0,female,20,2020-08-12_22h32.11.528,XpragOnly,2020.1.2,Win32,60,,,0,12.610385,space,11.217185,0,31,31,27,1,语境：图片中的女生在比较三辆车的时速。她觉得时速200算是快的车速。,img/kuai_pos.png,句子：“我们的这辆车快。”,0,necessarily,pos-f-comp-f-kuai,upward
,,space,28.97464,1,24.11051,space,22.53191,0,0,0,0,1,语境：男生让女生选择吃什么。除了门口的黑板，手机上也可以查到菜单。,trainingImg/amb1.png,句子：“男生正在等待女生， 手里握着一个手机。”,“手里握着手机”的可指“男生”，也可指“女生”。图片中确实有握着手机的女生。句子可以真实描述图片。,1,possibly,3,only1,male,31,2020-08-12_23h05.53.178,XpragOnly,2020.1.2,Win32,60,,,,,,,,,,,,,,,,,,
,,,,1,36.51029,space,29.490215,0,1,1,1,1,语境：男生让女生选择吃什么。除了门口的黑板，手机上也可以查到菜单。,trainingImg/amb2.png,句子：“男生正在等待女生， 手里握着一个手机。”,“手里握着手机”的可指“男生”，也可指“女生”。图片中确实有握着手机的男生。句子可以真实描述图片。,1,possibly,3,only1,male,31,2020-08-12_23h05.53.178,XpragOnly,2020.1.2,Win32,60,,,,,,,,,,,,,,,,,,
,,,,0,8.44708,space,4.24795,0,2,2,2,1,语境：女生躺在病床上睡着了。一会需要清洁纸巾。,trainingImg/noamb1v2.png,句子：“男生正在等待女生， 手里握着一个手机。”,“手里握着手机”的可指“男生”，也可指“女生”。图片中并没有握着手机的男生/女生。句子不可以真实描述图片。,0,necessarily,3,only1,male,31,2020-08-12_23h05.53.178,XpragOnly,2020.1.2,Win32,60,,,,,,,,,,,,,,,,,,
,,,,1,16.30706,space,8.7794,0,3,3,3,1,语境：女生躺在病床上睡着了。一会需要清洁纸巾。,trainingImg/noamb1v2.png,句子：“男生正在等待女生， 手里握着一张清洁纸巾。”,“手里握着清洁纸巾”的可指“男生”，也可指“女生”。图片中确实有握纸巾的男生。句子可以真实描述图片。,1,necessarily,3,only1,male,31,2020-08-12_23h05.53.178,XpragOnly,2020.1.2,Win32,60,,,,,,,,,,,,,,,,,,
,,,,,,,,,,,,,,,,,,,3,only1,male,31,2020-08-12_23h05.53.178,XpragOnly,2020.1.2,Win32,60,space,2.64872,0,17.83878,space,22.64434,0,0,0,20,1,语境：图片中的女生觉得20平方米算是大的蒙古包。她想租蒙古包。,img/da_pos.png,句子：“只有B蒙古包大。”,0,necessarily,pos-t-comp-f-onlyda,downward_only
,,,,,,,,,,,,,,,,,,,3,only1,male,31,2020-08-12_23h05.53.178,XpragOnly,2020.1.2,Win32,60,,,1,19.67985,space,17.50623,0,1,1,26,1,语境：图片中的女生觉得时速70算是快的车速。她在比较三辆车的车速。,img/kuai_comp.png,句子：“我们的这辆车快。”,1,necessarily,pos-t-comp-t-kuai,upward
,,,,,,,,,,,,,,,,,,,3,only1,male,31,2020-08-12_23h05.53.178,XpragOnly,2020.1.2,Win32,60,,,0,15.62609,space,14.099715,0,2,2,13,1,语境：图片中的女生在比较三个男生的身高。她觉得190cm算是高的男生。,img/gao_comp.png,句子：“这三个男生里，只有小明高。”,1,possibly,pos-f-comp-t-onlygao,downward_only
,,,,,,,,,,,,,,,,,,,3,only1,male,31,2020-08-12_23h05.53.178,XpragOnly,2020.1.2,Win32,60,,,0,10.148395,space,6.513345,0,3,3,8,1,语境：图片中的女生觉得170cm算是高的男生。她在和男生聊天。,img/gao_pos.png,句子：“小明高。”,1,possibly,pos-t-comp-f-gao,upward
,,,,,,,,,,,,,,,,,,,3,only1,male,31,2020-08-12_23h05.53.178,XpragOnly,2020.1.2,Win32,60,,,0,7.17097,space,4.31332,0,4,4,11,1,语境：图片中的女生在比较三个男生的身高。她觉得195cm算是高的男生。,img/gao_pos.png,句子：“小明高。”,0,necessarily,pos-f-comp-f-gao,upward
,,,,,,,,,,,,,,,,,,,3,only1,male,31,2020-08-12_23h05.53.178,XpragOnly,2020.1.2,Win32,60,,,0,7.58506,space,8.19652,0,5,5,9,1,语境：图片中的女生在比较三个男生的身高。她觉得190cm算是高的男生。,img/gao_comp.png,句子：“这三个男生里，小明高。”,1,possibly,pos-f-comp-t-gao,upward
,,,,,,,,,,,,,,,,,,,3,only1,male,31,2020-08-12_23h05.53.178,XpragOnly,2020.1.2,Win32,60,,,1,16.28228,space,11.96598,0,6,6,0,1,语境：图片中的女生觉得7万算是贵的车。她想买车。,img/gui_pos.png,句子：“红车贵。”,1,possibly,pos-t-comp-f-gui,upward
,,,,,,,,,,,,,,,,,,,3,only1,male,31,2020-08-12_23h05.53.178,XpragOnly,2020.1.2,Win32,60,,,0,7.48022,space,4.8668,0,7,7,17,1,语境：图片中的女生在比较三个蒙古包的面积大小。她觉得100平方米算是大的蒙古包。,img/da_comp.png,句子：“这三个蒙古包里，B蒙古包大。”,1,possibly,pos-f-comp-t-da,upward
,,,,,,,,,,,,,,,,,,,3,only1,male,31,2020-08-12_23h05.53.178,XpragOnly,2020.1.2,Win32,60,,,1,15.17628,space,10.96411,0,8,8,30,1,语境：图片中的女生觉得时速110算是快的车速。她在比较三辆车的车速。,img/kuai_comp.png,句子：“只有我们的这辆车快。”,1,necessarily,pos-t-comp-t-onlykuai,downward_only
,,,,,,,,,,,,,,,,,,,3,only1,male,31,2020-08-12_23h05.53.178,XpragOnly,2020.1.2,Win32,60,,,1,6.733545,space,2.28409,0,9,9,2,1,语境：图片中的女生觉得15万算是贵的车。她在比较三辆车的价格。,img/gui_comp.png,句子：“红车贵。”,1,necessarily,pos-t-comp-t-gui,upward
,,,,,,,,,,,,,,,,,,,3,only1,male,31,2020-08-12_23h05.53.178,XpragOnly,2020.1.2,Win32,60,,,0,5.53489,space,3.61714,0,10,10,5,1,语境：图片中的女生在比较三辆车的价格。她觉得50万算是贵的车。,img/gui_comp.png,句子：“这三个车里，只有红车贵。”,1,possibly,pos-f-comp-t-onlygui,downward_only
,,,,,,,,,,,,,,,,,,,3,only1,male,31,2020-08-12_23h05.53.178,XpragOnly,2020.1.2,Win32,60,,,0,4.83105,space,0.205095,0,11,11,1,1,语境：图片中的女生在比较三辆车的价格。她觉得40万算是贵的车。,img/gui_comp.png,句子：“这三个车里，红车贵。”,1,possibly,pos-f-comp-t-gui,upward
,,,,,,,,,,,,,,,,,,,3,only1,male,31,2020-08-12_23h05.53.178,XpragOnly,2020.1.2,Win32,60,,,0,8.079795,space,3.591635,0,12,12,19,1,语境：图片中的女生在比较三个蒙古包的面积大小。她觉得90平方米算是大的蒙古包。,img/da_pos.png,句子：“B蒙古包大。”,0,necessarily,pos-f-comp-f-da,upward
,,,,,,,,,,,,,,,,,,,3,only1,male,31,2020-08-12_23h05.53.178,XpragOnly,2020.1.2,Win32,60,,,1,14.24351,space,9.87875,0,13,13,18,1,语境：图片中的女生觉得20平方米算是大的蒙古包。她在比较三个蒙古包的面积大小。,img/da_comp.png,句子：“B蒙古包大。”,1,necessarily,pos-t-comp-t-da,upward
,,,,,,,,,,,,,,,,,,,3,only1,male,31,2020-08-12_23h05.53.178,XpragOnly,2020.1.2,Win32,60,,,0,12.36945,space,7.73804,0,14,14,28,1,语境：图片中的女生觉得时速90km算是快的车。她坐在副驾驶。,img/kuai_pos.png,句子：“只有我们的这辆车快。”,0,necessarily,pos-t-comp-f-onlykuai,downward_only
,,,,,,,,,,,,,,,,,,,3,only1,male,31,2020-08-12_23h05.53.178,XpragOnly,2020.1.2,Win32,60,,,1,8.298375,space,3.684435,0,15,15,22,1,语境：图片中的女生觉得50平方米算是大的蒙古包。她在比较三个蒙古包的面积大小。,img/da_comp.png,句子：“只有B蒙古包大。”,1,necessarily,pos-t-comp-t-onlyda,downward_only
,,,,,,,,,,,,,,,,,,,3,only1,male,31,2020-08-12_23h05.53.178,XpragOnly,2020.1.2,Win32,60,,,1,6.46542,space,2.068125,0,16,16,10,1,语境：图片中的女生觉得155cm算是高的男孩。她在比较三个男孩的身高。,img/gao_comp.png,句子：“小明高。”,1,necessarily,pos-t-comp-t-gao,upward
,,,,,,,,,,,,,,,,,,,3,only1,male,31,2020-08-12_23h05.53.178,XpragOnly,2020.1.2,Win32,60,,,1,7.03463,space,4.497825,0,17,17,6,1,语境：图片中的女生觉得15万算是贵的车。她在比较三辆车的价格。,img/gui_comp.png,句子：“只有红车贵。”,1,necessarily,pos-t-comp-t-onlygui,downward_only
,,,,,,,,,,,,,,,,,,,3,only1,male,31,2020-08-12_23h05.53.178,XpragOnly,2020.1.2,Win32,60,,,0,9.92887,space,5.59966,0,18,18,3,1,语境：图片中的女生在比较三辆车的价格。她觉得40万算是贵的车。,img/gui_pos.png,句子：“红车贵。”,0,necessarily,pos-f-comp-f-gui,upward
,,,,,,,,,,,,,,,,,,,3,only1,male,31,2020-08-12_23h05.53.178,XpragOnly,2020.1.2,Win32,60,,,0,8.23973,space,3.617865,0,19,19,25,1,语境：图片中的女生在比较三辆车的时速。她觉得时速160算是快的车速。,img/kuai_comp.png,句子：“这三辆车里，我们的这辆车快。”,1,possibly,pos-f-comp-t-kuai,upward
,,,,,,,,,,,,,,,,,,,3,only1,male,31,2020-08-12_23h05.53.178,XpragOnly,2020.1.2,Win32,60,,,0,7.663695,space,4.69862,0,20,20,31,1,语境：图片中的女生在比较三辆车的时速。她觉得时速200算是快的车速。,img/kuai_pos.png,句子：“只有我们的这辆车快。”,0,necessarily,pos-f-comp-f-onlykuai,downward_only
,,,,,,,,,,,,,,,,,,,3,only1,male,31,2020-08-12_23h05.53.178,XpragOnly,2020.1.2,Win32,60,,,1,4.419925,space,4.28229,0,21,21,14,1,语境：图片中的女生觉得173cm算是高的男孩。她在比较三个男孩的身高。,img/gao_comp.png,句子：“只有小明高。”,1,necessarily,pos-t-comp-t-onlygao,downward_only
,,,,,,,,,,,,,,,,,,,3,only1,male,31,2020-08-12_23h05.53.178,XpragOnly,2020.1.2,Win32,60,,,0,6.38109,space,1.86907,0,22,22,4,1,语境：图片中的女生觉得7万算是贵的车。她想买车。,img/gui_pos.png,句子：“只有红车贵。”,0,necessarily,pos-t-comp-f-onlygui,downward_only
,,,,,,,,,,,,,,,,,,,3,only1,male,31,2020-08-12_23h05.53.178,XpragOnly,2020.1.2,Win32,60,,,0,7.53161,space,3.27124,0,23,23,27,1,语境：图片中的女生在比较三辆车的时速。她觉得时速200算是快的车速。,img/kuai_pos.png,句子：“我们的这辆车快。”,0,necessarily,pos-f-comp-f-kuai,upward
,,,,,,,,,,,,,,,,,,,3,only1,male,31,2020-08-12_23h05.53.178,XpragOnly,2020.1.2,Win32,60,,,1,4.95014,space,1.106365,0,24,24,16,1,语境：图片中的女生觉得20平方米算是大的蒙古包。她想租蒙古包。,img/da_pos.png,句子：“B蒙古包大。”,1,possibly,pos-t-comp-f-da,upward
,,,,,,,,,,,,,,,,,,,3,only1,male,31,2020-08-12_23h05.53.178,XpragOnly,2020.1.2,Win32,60,,,0,7.42003,space,2.917215,0,25,25,7,1,语境：图片中的女生在比较三辆车的价格。她觉得18万算是贵的车。,img/gui_pos.png,句子：“只有红车贵。”,0,necessarily,pos-f-comp-f-onlygui,downward_only
,,,,,,,,,,,,,,,,,,,3,only1,male,31,2020-08-12_23h05.53.178,XpragOnly,2020.1.2,Win32,60,,,0,6.18187,space,1.71672,0,26,26,15,1,语境：图片中的女生在比较三个男生的身高。她觉得195cm算是高的男生。,img/gao_pos.png,句子：“只有小明高。”,0,necessarily,pos-f-comp-f-onlygao,downward_only
,,,,,,,,,,,,,,,,,,,3,only1,male,31,2020-08-12_23h05.53.178,XpragOnly,2020.1.2,Win32,60,,,1,9.74782,space,5.406025,0,27,27,24,1,语境：图片中的女生觉得时速90km算是快的车。她坐在副驾驶。,img/kuai_pos.png,句子：“我们的这辆车快。”,1,possibly,pos-t-comp-f-kuai,upward
,,,,,,,,,,,,,,,,,,,3,only1,male,31,2020-08-12_23h05.53.178,XpragOnly,2020.1.2,Win32,60,,,0,14.68449,space,10.26127,0,28,28,12,1,语境：图片中的女生觉得170cm算是高的男生。她在和男生聊天。,img/gao_pos.png,句子：“只有小明高。”,0,necessarily,pos-t-comp-f-onlygao,downward_only
,,,,,,,,,,,,,,,,,,,3,only1,male,31,2020-08-12_23h05.53.178,XpragOnly,2020.1.2,Win32,60,,,0,5.266435,space,1.30749,0,29,29,29,1,语境：图片中的女生在比较三辆车的时速。她觉得时速160算是快的车速。,img/kuai_comp.png,句子：“这三辆车里，只有我们的这辆车快。”,1,possibly,pos-f-comp-t-onlykuai,downward_only
,,,,,,,,,,,,,,,,,,,3,only1,male,31,2020-08-12_23h05.53.178,XpragOnly,2020.1.2,Win32,60,,,0,21.142385,space,17.441305,0,30,30,23,1,语境：图片中的女生在比较三个蒙古包的面积大小。她觉得90平方米算是大的蒙古包。,img/da_pos.png,句子：“只有B蒙古包大。”,0,necessarily,pos-f-comp-f-onlyda,downward_only
,,,,,,,,,,,,,,,,,,,3,only1,male,31,2020-08-12_23h05.53.178,XpragOnly,2020.1.2,Win32,60,,,0,6.17312,space,1.469925,0,31,31,21,1,语境：图片中的女生在比较三个蒙古包的面积大小。她觉得100平方米算是大的蒙古包。,img/da_comp.png,句子：“这三个蒙古包里，只有B蒙古包大。”,1,possibly,pos-f-comp-t-onlyda,downward_only
1,31.961315,space,30.949465,0,18.588385,space,11.92064,0,0,0,0,1,语境：男生让女生选择吃什么。除了门口的黑板，手机上也可以查到菜单。,trainingImg/amb1.png,句子：“男生正在等待女生， 手里握着一个手机。”,“手里握着手机”的可指“男生”，也可指“女生”。图片中确实有握着手机的女生。句子可以真实描述图片。,1,possibly,3,only2,Female,22,2020-08-12_23h25.37.319,XpragOnly,2020.1.2,MacIntel,60,,,,,,,,,,,,,,,,,,
,,,,1,5.97865,space,2.2438,0,1,1,1,1,语境：男生让女生选择吃什么。除了门口的黑板，手机上也可以查到菜单。,trainingImg/amb2.png,句子：“男生正在等待女生， 手里握着一个手机。”,“手里握着手机”的可指“男生”，也可指“女生”。图片中确实有握着手机的男生。句子可以真实描述图片。,1,possibly,3,only2,Female,22,2020-08-12_23h25.37.319,XpragOnly,2020.1.2,MacIntel,60,,,,,,,,,,,,,,,,,,
,,,,0,9.28895,space,1.43492,0,2,2,2,1,语境：女生躺在病床上睡着了。一会需要清洁纸巾。,trainingImg/noamb1v2.png,句子：“男生正在等待女生， 手里握着一个手机。”,“手里握着手机”的可指“男生”，也可指“女生”。图片中并没有握着手机的男生/女生。句子不可以真实描述图片。,0,necessarily,3,only2,Female,22,2020-08-12_23h25.37.319,XpragOnly,2020.1.2,MacIntel,60,,,,,,,,,,,,,,,,,,
,,,,1,10.178855,space,2.06563,0,3,3,3,1,语境：女生躺在病床上睡着了。一会需要清洁纸巾。,trainingImg/noamb1v2.png,句子：“男生正在等待女生， 手里握着一张清洁纸巾。”,“手里握着清洁纸巾”的可指“男生”，也可指“女生”。图片中确实有握纸巾的男生。句子可以真实描述图片。,1,necessarily,3,only2,Female,22,2020-08-12_23h25.37.319,XpragOnly,2020.1.2,MacIntel,60,,,,,,,,,,,,,,,,,,
,,,,,,,,,,,,,,,,,,,3,only2,Female,22,2020-08-12_23h25.37.319,XpragOnly,2020.1.2,MacIntel,60,space,0.96925,0,8.962005,space,4.617125,0,0,0,27,1,语境：图片中的女生在比较三辆车的时速。她觉得时速200算是快的车速。,img/kuai_pos.png,句子：“我们的这辆车快。”,0,necessarily,pos-f-comp-f-kuai,upward
,,,,,,,,,,,,,,,,,,,3,only2,Female,22,2020-08-12_23h25.37.319,XpragOnly,2020.1.2,MacIntel,60,,,1,4.98017,space,0.72115,0,1,1,1,1,语境：图片中的女生在比较三辆车的价格。她觉得40万算是贵的车。,img/gui_comp.png,句子：“这三个车里，红车贵。”,1,possibly,pos-f-comp-t-gui,upward
,,,,,,,,,,,,,,,,,,,3,only2,Female,22,2020-08-12_23h25.37.319,XpragOnly,2020.1.2,MacIntel,60,,,1,6.061625,space,1.758005,0,2,2,29,1,语境：图片中的女生在比较三辆车的时速。她觉得时速160算是快的车速。,img/kuai_comp.png,句子：“这三辆车里，只有我们的这辆车快。”,1,possibly,pos-f-comp-t-onlykuai,downward_only
,,,,,,,,,,,,,,,,,,,3,only2,Female,22,2020-08-12_23h25.37.319,XpragOnly,2020.1.2,MacIntel,60,,,1,5.24098,space,1.187815,0,3,3,30,1,语境：图片中的女生觉得时速110算是快的车速。她在比较三辆车的车速。,img/kuai_comp.png,句子：“只有我们的这辆车快。”,1,necessarily,pos-t-comp-t-onlykuai,downward_only
,,,,,,,,,,,,,,,,,,,3,only2,Female,22,2020-08-12_23h25.37.319,XpragOnly,2020.1.2,MacIntel,60,,,1,4.884215,space,0.52503,0,4,4,10,1,语境：图片中的女生觉得155cm算是高的男孩。她在比较三个男孩的身高。,img/gao_comp.png,句子：“小明高。”,1,necessarily,pos-t-comp-t-gao,upward
,,,,,,,,,,,,,,,,,,,3,only2,Female,22,2020-08-12_23h25.37.319,XpragOnly,2020.1.2,MacIntel,60,,,0,2.907895,space,1.346575,0,5,5,7,1,语境：图片中的女生在比较三辆车的价格。她觉得18万算是贵的车。,img/gui_pos.png,句子：“只有红车贵。”,0,necessarily,pos-f-comp-f-onlygui,downward_only
,,,,,,,,,,,,,,,,,,,3,only2,Female,22,2020-08-12_23h25.37.319,XpragOnly,2020.1.2,MacIntel,60,,,1,3.81547,space,1.181375,0,6,6,22,1,语境：图片中的女生觉得50平方米算是大的蒙古包。她在比较三个蒙古包的面积大小。,img/da_comp.png,句子：“只有B蒙古包大。”,1,necessarily,pos-t-comp-t-onlyda,downward_only
,,,,,,,,,,,,,,,,,,,3,only2,Female,22,2020-08-12_23h25.37.319,XpragOnly,2020.1.2,MacIntel,60,,,1,4.681325,space,1.222155,0,7,7,0,1,语境：图片中的女生觉得7万算是贵的车。她想买车。,img/gui_pos.png,句子：“红车贵。”,1,possibly,pos-t-comp-f-gui,upward
,,,,,,,,,,,,,,,,,,,3,only2,Female,22,2020-08-12_23h25.37.319,XpragOnly,2020.1.2,MacIntel,60,,,1,3.26468,space,0.644585,0,8,8,14,1,语境：图片中的女生觉得173cm算是高的男孩。她在比较三个男孩的身高。,img/gao_comp.png,句子：“只有小明高。”,1,necessarily,pos-t-comp-t-onlygao,downward_only
,,,,,,,,,,,,,,,,,,,3,only2,Female,22,2020-08-12_23h25.37.319,XpragOnly,2020.1.2,MacIntel,60,,,0,4.51412,space,0.06817,0,9,9,4,1,语境：图片中的女生觉得7万算是贵的车。她想买车。,img/gui_pos.png,句子：“只有红车贵。”,0,necessarily,pos-t-comp-f-onlygui,downward_only
,,,,,,,,,,,,,,,,,,,3,only2,Female,22,2020-08-12_23h25.37.319,XpragOnly,2020.1.2,MacIntel,60,,,1,2.662725,space,1.333785,0,10,10,2,1,语境：图片中的女生觉得15万算是贵的车。她在比较三辆车的价格。,img/gui_comp.png,句子：“红车贵。”,1,necessarily,pos-t-comp-t-gui,upward
,,,,,,,,,,,,,,,,,,,3,only2,Female,22,2020-08-12_23h25.37.319,XpragOnly,2020.1.2,MacIntel,60,,,1,6.33088,space,1.69428,0,11,11,25,1,语境：图片中的女生在比较三辆车的时速。她觉得时速160算是快的车速。,img/kuai_comp.png,句子：“这三辆车里，我们的这辆车快。”,1,possibly,pos-f-comp-t-kuai,upward
,,,,,,,,,,,,,,,,,,,3,only2,Female,22,2020-08-12_23h25.37.319,XpragOnly,2020.1.2,MacIntel,60,,,1,4.88306,space,1.228,0,12,12,8,1,语境：图片中的女生觉得170cm算是高的男生。她在和男生聊天。,img/gao_pos.png,句子：“小明高。”,1,possibly,pos-t-comp-f-gao,upward
,,,,,,,,,,,,,,,,,,,3,only2,Female,22,2020-08-12_23h25.37.319,XpragOnly,2020.1.2,MacIntel,60,,,0,4.432165,space,0.451295,0,13,13,23,1,语境：图片中的女生在比较三个蒙古包的面积大小。她觉得90平方米算是大的蒙古包。,img/da_pos.png,句子：“只有B蒙古包大。”,0,necessarily,pos-f-comp-f-onlyda,downward_only
,,,,,,,,,,,,,,,,,,,3,only2,Female,22,2020-08-12_23h25.37.319,XpragOnly,2020.1.2,MacIntel,60,,,0,3.556665,space,0.520905,0,14,14,20,1,语境：图片中的女生觉得20平方米算是大的蒙古包。她想租蒙古包。,img/da_pos.png,句子：“只有B蒙古包大。”,0,necessarily,pos-t-comp-f-onlyda,downward_only
,,,,,,,,,,,,,,,,,,,3,only2,Female,22,2020-08-12_23h25.37.319,XpragOnly,2020.1.2,MacIntel,60,,,1,5.624945,space,0.960915,0,15,15,6,1,语境：图片中的女生觉得15万算是贵的车。她在比较三辆车的价格。,img/gui_comp.png,句子：“只有红车贵。”,1,necessarily,pos-t-comp-t-onlygui,downward_only
,,,,,,,,,,,,,,,,,,,3,only2,Female,22,2020-08-12_23h25.37.319,XpragOnly,2020.1.2,MacIntel,60,,,0,8.13225,space,3.575695,0,16,16,31,1,语境：图片中的女生在比较三辆车的时速。她觉得时速200算是快的车速。,img/kuai_pos.png,句子：“只有我们的这辆车快。”,0,necessarily,pos-f-comp-f-onlykuai,downward_only
,,,,,,,,,,,,,,,,,,,3,only2,Female,22,2020-08-12_23h25.37.319,XpragOnly,2020.1.2,MacIntel,60,,,0,3.27656,space,0.539075,0,17,17,12,1,语境：图片中的女生觉得170cm算是高的男生。她在和男生聊天。,img/gao_pos.png,句子：“只有小明高。”,0,necessarily,pos-t-comp-f-onlygao,downward_only
,,,,,,,,,,,,,,,,,,,3,only2,Female,22,2020-08-12_23h25.37.319,XpragOnly,2020.1.2,MacIntel,60,,,1,6.898835,space,2.967875,0,18,18,9,1,语境：图片中的女生在比较三个男生的身高。她觉得190cm算是高的男生。,img/gao_comp.png,句子：“这三个男生里，小明高。”,1,possibly,pos-f-comp-t-gao,upward
,,,,,,,,,,,,,,,,,,,3,only2,Female,22,2020-08-12_23h25.37.319,XpragOnly,2020.1.2,MacIntel,60,,,1,5.12573,space,1.305405,0,19,19,16,1,语境：图片中的女生觉得20平方米算是大的蒙古包。她想租蒙古包。,img/da_pos.png,句子：“B蒙古包大。”,1,possibly,pos-t-comp-f-da,upward
,,,,,,,,,,,,,,,,,,,3,only2,Female,22,2020-08-12_23h25.37.319,XpragOnly,2020.1.2,MacIntel,60,,,1,4.38692,space,0.798895,0,20,20,18,1,语境：图片中的女生觉得20平方米算是大的蒙古包。她在比较三个蒙古包的面积大小。,img/da_comp.png,句子：“B蒙古包大。”,1,necessarily,pos-t-comp-t-da,upward
,,,,,,,,,,,,,,,,,,,3,only2,Female,22,2020-08-12_23h25.37.319,XpragOnly,2020.1.2,MacIntel,60,,,0,3.8983,space,0.60807,0,21,21,19,1,语境：图片中的女生在比较三个蒙古包的面积大小。她觉得90平方米算是大的蒙古包。,img/da_pos.png,句子：“B蒙古包大。”,0,necessarily,pos-f-comp-f-da,upward
,,,,,,,,,,,,,,,,,,,3,only2,Female,22,2020-08-12_23h25.37.319,XpragOnly,2020.1.2,MacIntel,60,,,1,5.44682,space,1.223095,0,22,22,26,1,语境：图片中的女生觉得时速70算是快的车速。她在比较三辆车的车速。,img/kuai_comp.png,句子：“我们的这辆车快。”,1,necessarily,pos-t-comp-t-kuai,upward
,,,,,,,,,,,,,,,,,,,3,only2,Female,22,2020-08-12_23h25.37.319,XpragOnly,2020.1.2,MacIntel,60,,,0,9.27248,space,5.168335,0,23,23,21,1,语境：图片中的女生在比较三个蒙古包的面积大小。她觉得100平方米算是大的蒙古包。,img/da_comp.png,句子：“这三个蒙古包里，只有B蒙古包大。”,1,possibly,pos-f-comp-t-onlyda,downward_only
,,,,,,,,,,,,,,,,,,,3,only2,Female,22,2020-08-12_23h25.37.319,XpragOnly,2020.1.2,MacIntel,60,,,0,7.097,space,2.541935,0,24,24,13,1,语境：图片中的女生在比较三个男生的身高。她觉得190cm算是高的男生。,img/gao_comp.png,句子：“这三个男生里，只有小明高。”,1,possibly,pos-f-comp-t-onlygao,downward_only
,,,,,,,,,,,,,,,,,,,3,only2,Female,22,2020-08-12_23h25.37.319,XpragOnly,2020.1.2,MacIntel,60,,,0,2.427525,space,0.58617,0,25,25,11,1,语境：图片中的女生在比较三个男生的身高。她觉得195cm算是高的男生。,img/gao_pos.png,句子：“小明高。”,0,necessarily,pos-f-comp-f-gao,upward
,,,,,,,,,,,,,,,,,,,3,only2,Female,22,2020-08-12_23h25.37.319,XpragOnly,2020.1.2,MacIntel,60,,,0,6.023525,space,1.449795,0,26,26,28,1,语境：图片中的女生觉得时速90km算是快的车。她坐在副驾驶。,img/kuai_pos.png,句子：“只有我们的这辆车快。”,0,necessarily,pos-t-comp-f-onlykuai,downward_only
,,,,,,,,,,,,,,,,,,,3,only2,Female,22,2020-08-12_23h25.37.319,XpragOnly,2020.1.2,MacIntel,60,,,0,4.06071,space,0.21789,0,27,27,5,1,语境：图片中的女生在比较三辆车的价格。她觉得50万算是贵的车。,img/gui_comp.png,句子：“这三个车里，只有红车贵。”,1,possibly,pos-f-comp-t-onlygui,downward_only
,,,,,,,,,,,,,,,,,,,3,only2,Female,22,2020-08-12_23h25.37.319,XpragOnly,2020.1.2,MacIntel,60,,,1,4.464035,space,0.735365,0,28,28,24,1,语境：图片中的女生觉得时速90km算是快的车。她坐在副驾驶。,img/kuai_pos.png,句子：“我们的这辆车快。”,1,possibly,pos-t-comp-f-kuai,upward
,,,,,,,,,,,,,,,,,,,3,only2,Female,22,2020-08-12_23h25.37.319,XpragOnly,2020.1.2,MacIntel,60,,,0,4.4118,space,0.710345,0,29,29,15,1,语境：图片中的女生在比较三个男生的身高。她觉得195cm算是高的男生。,img/gao_pos.png,句子：“只有小明高。”,0,necessarily,pos-f-comp-f-onlygao,downward_only
,,,,,,,,,,,,,,,,,,,3,only2,Female,22,2020-08-12_23h25.37.319,XpragOnly,2020.1.2,MacIntel,60,,,1,5.58176,space,1.13957,0,30,30,17,1,语境：图片中的女生在比较三个蒙古包的面积大小。她觉得100平方米算是大的蒙古包。,img/da_comp.png,句子：“这三个蒙古包里，B蒙古包大。”,1,possibly,pos-f-comp-t-da,upward
,,,,,,,,,,,,,,,,,,,3,only2,Female,22,2020-08-12_23h25.37.319,XpragOnly,2020.1.2,MacIntel,60,,,0,3.082015,space,0.39503,0,31,31,3,1,语境：图片中的女生在比较三辆车的价格。她觉得40万算是贵的车。,img/gui_pos.png,句子：“红车贵。”,0,necessarily,pos-f-comp-f-gui,upward
,,space,1.450595,1,17.808205,space,14.20817,0,0,0,0,1,语境：男生让女生选择吃什么。除了门口的黑板，手机上也可以查到菜单。,trainingImg/amb1.png,句子：“男生正在等待女生， 手里握着一个手机。”,“手里握着手机”的可指“男生”，也可指“女生”。图片中确实有握着手机的女生。句子可以真实描述图片。,1,possibly,3,only3,Female,27,2020-08-13_09h05.58.208,XpragOnly,2020.1.2,Win32,60,,,,,,,,,,,,,,,,,,
,,,,1,7.796515,space,1.072215,0,1,1,1,1,语境：男生让女生选择吃什么。除了门口的黑板，手机上也可以查到菜单。,trainingImg/amb2.png,句子：“男生正在等待女生， 手里握着一个手机。”,“手里握着手机”的可指“男生”，也可指“女生”。图片中确实有握着手机的男生。句子可以真实描述图片。,1,possibly,3,only3,Female,27,2020-08-13_09h05.58.208,XpragOnly,2020.1.2,Win32,60,,,,,,,,,,,,,,,,,,
,,,,0,12.06951,space,3.768315,0,2,2,2,1,语境：女生躺在病床上睡着了。一会需要清洁纸巾。,trainingImg/noamb1v2.png,句子：“男生正在等待女生， 手里握着一个手机。”,“手里握着手机”的可指“男生”，也可指“女生”。图片中并没有握着手机的男生/女生。句子不可以真实描述图片。,0,necessarily,3,only3,Female,27,2020-08-13_09h05.58.208,XpragOnly,2020.1.2,Win32,60,,,,,,,,,,,,,,,,,,
,,,,1,6.17239,space,2.839275,0,3,3,3,1,语境：女生躺在病床上睡着了。一会需要清洁纸巾。,trainingImg/noamb1v2.png,句子：“男生正在等待女生， 手里握着一张清洁纸巾。”,“手里握着清洁纸巾”的可指“男生”，也可指“女生”。图片中确实有握纸巾的男生。句子可以真实描述图片。,1,necessarily,3,only3,Female,27,2020-08-13_09h05.58.208,XpragOnly,2020.1.2,Win32,60,,,,,,,,,,,,,,,,,,
,,,,,,,,,,,,,,,,,,,3,only3,Female,27,2020-08-13_09h05.58.208,XpragOnly,2020.1.2,Win32,60,space,1.446835,0,6.37049,space,2.07679,0,0,0,31,1,语境：图片中的女生在比较三辆车的时速。她觉得时速200算是快的车速。,img/kuai_pos.png,句子：“只有我们的这辆车快。”,0,necessarily,pos-f-comp-f-onlykuai,downward_only
,,,,,,,,,,,,,,,,,,,3,only3,Female,27,2020-08-13_09h05.58.208,XpragOnly,2020.1.2,Win32,60,,,0,5.408175,space,2.384225,0,1,1,19,1,语境：图片中的女生在比较三个蒙古包的面积大小。她觉得90平方米算是大的蒙古包。,img/da_pos.png,句子：“B蒙古包大。”,0,necessarily,pos-f-comp-f-da,upward
,,,,,,,,,,,,,,,,,,,3,only3,Female,27,2020-08-13_09h05.58.208,XpragOnly,2020.1.2,Win32,60,,,0,15.233175,space,10.61557,0,2,2,24,1,语境：图片中的女生觉得时速90km算是快的车。她坐在副驾驶。,img/kuai_pos.png,句子：“我们的这辆车快。”,1,possibly,pos-t-comp-f-kuai,upward
,,,,,,,,,,,,,,,,,,,3,only3,Female,27,2020-08-13_09h05.58.208,XpragOnly,2020.1.2,Win32,60,,,0,3.323725,space,1.16683,0,3,3,23,1,语境：图片中的女生在比较三个蒙古包的面积大小。她觉得90平方米算是大的蒙古包。,img/da_pos.png,句子：“只有B蒙古包大。”,0,necessarily,pos-f-comp-f-onlyda,downward_only
,,,,,,,,,,,,,,,,,,,3,only3,Female,27,2020-08-13_09h05.58.208,XpragOnly,2020.1.2,Win32,60,,,0,4.155785,space,0.5565,0,4,4,15,1,语境：图片中的女生在比较三个男生的身高。她觉得195cm算是高的男生。,img/gao_pos.png,句子：“只有小明高。”,0,necessarily,pos-f-comp-f-onlygao,downward_only
,,,,,,,,,,,,,,,,,,,3,only3,Female,27,2020-08-13_09h05.58.208,XpragOnly,2020.1.2,Win32,60,,,0,4.07237,space,0.8858,0,5,5,7,1,语境：图片中的女生在比较三辆车的价格。她觉得18万算是贵的车。,img/gui_pos.png,句子：“只有红车贵。”,0,necessarily,pos-f-comp-f-onlygui,downward_only
,,,,,,,,,,,,,,,,,,,3,only3,Female,27,2020-08-13_09h05.58.208,XpragOnly,2020.1.2,Win32,60,,,1,3.41902,space,0.8939,0,6,6,10,1,语境：图片中的女生觉得155cm算是高的男孩。她在比较三个男孩的身高。,img/gao_comp.png,句子：“小明高。”,1,necessarily,pos-t-comp-t-gao,upward
,,,,,,,,,,,,,,,,,,,3,only3,Female,27,2020-08-13_09h05.58.208,XpragOnly,2020.1.2,Win32,60,,,1,9.138905,space,4.722945,0,7,7,26,1,语境：图片中的女生觉得时速70算是快的车速。她在比较三辆车的车速。,img/kuai_comp.png,句子：“我们的这辆车快。”,1,necessarily,pos-t-comp-t-kuai,upward
,,,,,,,,,,,,,,,,,,,3,only3,Female,27,2020-08-13_09h05.58.208,XpragOnly,2020.1.2,Win32,60,,,0,7.611235,space,3.32133,0,8,8,11,1,语境：图片中的女生在比较三个男生的身高。她觉得195cm算是高的男生。,img/gao_pos.png,句子：“小明高。”,0,necessarily,pos-f-comp-f-gao,upward
,,,,,,,,,,,,,,,,,,,3,only3,Female,27,2020-08-13_09h05.58.208,XpragOnly,2020.1.2,Win32,60,,,0,3.542065,space,0.118725,0,9,9,4,1,语境：图片中的女生觉得7万算是贵的车。她想买车。,img/gui_pos.png,句子：“只有红车贵。”,0,necessarily,pos-t-comp-f-onlygui,downward_only
,,,,,,,,,,,,,,,,,,,3,only3,Female,27,2020-08-13_09h05.58.208,XpragOnly,2020.1.2,Win32,60,,,1,5.55067,space,1.2668,0,10,10,9,1,语境：图片中的女生在比较三个男生的身高。她觉得190cm算是高的男生。,img/gao_comp.png,句子：“这三个男生里，小明高。”,1,possibly,pos-f-comp-t-gao,upward
,,,,,,,,,,,,,,,,,,,3,only3,Female,27,2020-08-13_09h05.58.208,XpragOnly,2020.1.2,Win32,60,,,1,4.872935,space,0.43824,0,11,11,22,1,语境：图片中的女生觉得50平方米算是大的蒙古包。她在比较三个蒙古包的面积大小。,img/da_comp.png,句子：“只有B蒙古包大。”,1,necessarily,pos-t-comp-t-onlyda,downward_only
,,,,,,,,,,,,,,,,,,,3,only3,Female,27,2020-08-13_09h05.58.208,XpragOnly,2020.1.2,Win32,60,,,1,2.654365,space,0.68488,0,12,12,1,1,语境：图片中的女生在比较三辆车的价格。她觉得40万算是贵的车。,img/gui_comp.png,句子：“这三个车里，红车贵。”,1,possibly,pos-f-comp-t-gui,upward
,,,,,,,,,,,,,,,,,,,3,only3,Female,27,2020-08-13_09h05.58.208,XpragOnly,2020.1.2,Win32,60,,,0,6.735655,space,2.787105,0,13,13,28,1,语境：图片中的女生觉得时速90km算是快的车。她坐在副驾驶。,img/kuai_pos.png,句子：“只有我们的这辆车快。”,0,necessarily,pos-t-comp-f-onlykuai,downward_only
,,,,,,,,,,,,,,,,,,,3,only3,Female,27,2020-08-13_09h05.58.208,XpragOnly,2020.1.2,Win32,60,,,0,2.09475,space,0.83547,0,14,14,3,1,语境：图片中的女生在比较三辆车的价格。她觉得40万算是贵的车。,img/gui_pos.png,句子：“红车贵。”,0,necessarily,pos-f-comp-f-gui,upward
,,,,,,,,,,,,,,,,,,,3,only3,Female,27,2020-08-13_09h05.58.208,XpragOnly,2020.1.2,Win32,60,,,0,2.087415,space,0.174465,0,15,15,20,1,语境：图片中的女生觉得20平方米算是大的蒙古包。她想租蒙古包。,img/da_pos.png,句子：“只有B蒙古包大。”,0,necessarily,pos-t-comp-f-onlyda,downward_only
,,,,,,,,,,,,,,,,,,,3,only3,Female,27,2020-08-13_09h05.58.208,XpragOnly,2020.1.2,Win32,60,,,0,3.324825,space,0.356245,0,16,16,5,1,语境：图片中的女生在比较三辆车的价格。她觉得50万算是贵的车。,img/gui_comp.png,句子：“这三个车里，只有红车贵。”,1,possibly,pos-f-comp-t-onlygui,downward_only
